STUDYID,DOMAIN,USUBJID,SUBJID,RFSTDTC,RFENDTC,RFXSTDTC,RFXENDTC,RFICDTC,RFPENDTC,DTHDTC,DTHFL,SITEID,AGE,AGEU,SEX,RACE,ETHNIC,ARMCD,ARM,ACTARMCD,ACTARM,COUNTRY,DMDTC,DMDY
STUDY001,DM,STUDY001-SUBJ0001,SUBJ0001,2025-06-28,2025-11-02,2025-07-04,2025-11-02,2024-12-16,2025-11-02,,,16,39,YEARS,M,BLACK OR AFRICAN AMERICAN,NOT HISPANIC OR LATINO,ARM2,Treatment 2,ARM2,Treatment 2,ST,2025-07-13,17
STUDY001,DM,STUDY001-SUBJ0002,SUBJ0002,2025-09-21,2025-11-03,2025-07-31,2025-10-27,2025-07-22,2025-11-03,,,2,21,YEARS,M,ASIAN,HISPANIC OR LATINO,ARM2,Treatment 2,ARM2,Treatment 2,MK,2025-03-15,17
STUDY001,DM,STUDY001-SUBJ0003,SUBJ0003,2025-03-13,2025-10-31,2025-05-21,2025-10-30,2025-01-27,2025-10-31,,,32,48,YEARS,F,AMERICAN INDIAN OR ALASKA NATIVE,HISPANIC OR LATINO,ARM1,Treatment 1,ARM1,Treatment 1,SD,2025-10-22,5
STUDY001,DM,STUDY001-SUBJ0004,SUBJ0004,2025-09-30,2025-11-18,2025-05-06,2025-11-14,2025-05-28,2025-11-18,,,19,24,YEARS,F,AMERICAN INDIAN OR ALASKA NATIVE,NOT HISPANIC OR LATINO,ARM3,Treatment 3,ARM3,Treatment 3,UY,2024-12-08,19
STUDY001,DM,STUDY001-SUBJ0005,SUBJ0005,2024-12-21,2025-10-31,2025-10-13,2025-11-18,2025-05-08,2025-10-31,,,43,49,YEARS,F,BLACK OR AFRICAN AMERICAN,NOT HISPANIC OR LATINO,ARM2,Treatment 2,ARM2,Treatment 2,TV,2025-05-19,24
STUDY001,DM,STUDY001-SUBJ0006,SUBJ0006,2025-04-22,2025-10-30,2025-06-05,2025-11-06,2025-02-13,2025-10-30,,,11,51,YEARS,F,ASIAN,NOT HISPANIC OR LATINO,ARM2,Treatment 2,ARM2,Treatment 2,HU,2025-08-21,28
STUDY001,DM,STUDY001-SUBJ0007,SUBJ0007,2025-06-23,2025-11-11,2024-12-08,2025-10-28,2025-06-02,2025-11-11,,,50,54,YEARS,M,AMERICAN INDIAN OR ALASKA NATIVE,NOT HISPANIC OR LATINO,ARM2,Treatment 2,ARM2,Treatment 2,AT,2025-04-12,22
STUDY001,DM,STUDY001-SUBJ0008,SUBJ0008,2025-02-25,2025-11-10,2025-09-13,2025-11-03,2025-06-07,2025-11-10,,,46,76,YEARS,F,WHITE,NOT HISPANIC OR LATINO,ARM1,Treatment 1,ARM1,Treatment 1,TJ,2025-01-15,7
STUDY001,DM,STUDY001-SUBJ0009,SUBJ0009,2025-05-02,2025-10-26,2025-09-09,2025-11-12,2025-07-14,2025-10-26,,,43,63,YEARS,F,AMERICAN INDIAN OR ALASKA NATIVE,NOT HISPANIC OR LATINO,ARM3,Treatment 3,ARM3,Treatment 3,FM,2025-08-02,11
STUDY001,DM,STUDY001-SUBJ0010,SUBJ0010,2025-06-09,2025-11-20,2025-01-30,2025-11-03,2025-01-26,2025-11-20,,,41,44,YEARS,M,WHITE,NOT HISPANIC OR LATINO,ARM1,Treatment 1,ARM1,Treatment 1,BO,2025-04-07,22
STUDY001,DM,STUDY001-SUBJ0011,SUBJ0011,2025-06-20,2025-11-18,2025-06-08,2025-10-27,2025-04-14,2025-11-18,,,26,33,YEARS,F,ASIAN,HISPANIC OR LATINO,ARM2,Treatment 2,ARM2,Treatment 2,TH,2025-05-30,19
STUDY001,DM,STUDY001-SUBJ0012,SUBJ0012,2025-09-25,2025-10-30,2025-01-26,2025-10-27,2025-03-28,2025-10-30,,,12,40,YEARS,M,BLACK OR AFRICAN AMERICAN,HISPANIC OR LATINO,ARM2,Treatment 2,ARM2,Treatment 2,CZ,2025-09-09,9
STUDY001,DM,STUDY001-SUBJ0013,SUBJ0013,2025-01-05,2025-11-06,2024-12-29,2025-11-09,2025-08-08,2025-11-06,,,4,48,YEARS,F,BLACK OR AFRICAN AMERICAN,HISPANIC OR LATINO,ARM3,Treatment 3,ARM3,Treatment 3,SI,2024-12-15,7
STUDY001,DM,STUDY001-SUBJ0014,SUBJ0014,2025-02-18,2025-10-28,2024-12-01,2025-11-02,2025-07-09,2025-10-28,,,30,72,YEARS,F,BLACK OR AFRICAN AMERICAN,HISPANIC OR LATINO,ARM1,Treatment 1,ARM1,Treatment 1,MW,2025-09-26,7
STUDY001,DM,STUDY001-SUBJ0015,SUBJ0015,2025-05-29,2025-11-24,2025-01-21,2025-10-30,2025-08-13,2025-11-24,,,14,57,YEARS,F,WHITE,NOT HISPANIC OR LATINO,ARM2,Treatment 2,ARM2,Treatment 2,GH,2025-10-13,2
STUDY001,DM,STUDY001-SUBJ0016,SUBJ0016,2025-01-06,2025-11-13,2025-08-21,2025-10-27,2025-02-05,2025-11-13,,,22,20,YEARS,F,BLACK OR AFRICAN AMERICAN,NOT HISPANIC OR LATINO,ARM3,Treatment 3,ARM3,Treatment 3,KG,2025-05-06,3
STUDY001,DM,STUDY001-SUBJ0017,SUBJ0017,2024-12-01,2025-11-08,2025-07-06,2025-10-30,2024-12-24,2025-11-08,,,26,78,YEARS,F,BLACK OR AFRICAN AMERICAN,NOT HISPANIC OR LATINO,ARM1,Treatment 1,ARM1,Treatment 1,MM,2025-01-19,5
STUDY001,DM,STUDY001-SUBJ0018,SUBJ0018,2025-09-27,2025-10-26,2025-06-06,2025-11-23,2025-07-13,2025-10-26,,,27,64,YEARS,M,OTHER,HISPANIC OR LATINO,ARM3,Treatment 3,ARM3,Treatment 3,GM,2025-05-17,29
STUDY001,DM,STUDY001-SUBJ0019,SUBJ0019,2025-06-09,2025-11-12,2025-03-10,2025-11-02,2025-08-02,2025-11-12,,,26,76,YEARS,F,BLACK OR AFRICAN AMERICAN,HISPANIC OR LATINO,ARM1,Treatment 1,ARM1,Treatment 1,IL,2025-04-09,10
STUDY001,DM,STUDY001-SUBJ0020,SUBJ0020,2025-06-28,2025-10-28,2025-05-06,2025-11-08,2025-10-21,2025-10-28,,,21,25,YEARS,M,BLACK OR AFRICAN AMERICAN,NOT HISPANIC OR LATINO,ARM2,Treatment 2,ARM2,Treatment 2,CG,2025-07-02,26
STUDY001,DM,STUDY001-SUBJ0021,SUBJ0021,2024-12-30,2025-11-22,2025-07-04,2025-11-04,2025-04-05,2025-11-22,,,40,56,YEARS,M,WHITE,NOT HISPANIC OR LATINO,ARM1,Treatment 1,ARM1,Treatment 1,HU,2025-01-03,26
STUDY001,DM,STUDY001-SUBJ0022,SUBJ0022,2025-06-13,2025-11-20,2025-05-08,2025-11-20,2025-05-26,2025-11-20,,,7,36,YEARS,F,AMERICAN INDIAN OR ALASKA NATIVE,NOT HISPANIC OR LATINO,ARM2,Treatment 2,ARM2,Treatment 2,LK,2025-08-17,12
STUDY001,DM,STUDY001-SUBJ0023,SUBJ0023,2025-01-16,2025-10-26,2025-08-02,2025-11-24,2025-10-25,2025-10-26,,,50,27,YEARS,M,WHITE,HISPANIC OR LATINO,ARM2,Treatment 2,ARM2,Treatment 2,LR,2025-03-12,24
STUDY001,DM,STUDY001-SUBJ0024,SUBJ0024,2025-10-04,2025-11-07,2025-10-16,2025-11-14,2025-06-29,2025-11-07,,,39,62,YEARS,M,ASIAN,HISPANIC OR LATINO,ARM2,Treatment 2,ARM2,Treatment 2,LB,2025-08-16,9
STUDY001,DM,STUDY001-SUBJ0025,SUBJ0025,2025-05-22,2025-10-26,2025-06-22,2025-11-17,2025-05-05,2025-10-26,,,32,22,YEARS,M,BLACK OR AFRICAN AMERICAN,HISPANIC OR LATINO,ARM3,Treatment 3,ARM3,Treatment 3,PW,2025-08-29,17
STUDY001,DM,STUDY001-SUBJ0026,SUBJ0026,2025-06-07,2025-11-23,2025-04-06,2025-11-03,2025-03-25,2025-11-23,,,38,44,YEARS,F,ASIAN,NOT HISPANIC OR LATINO,ARM1,Treatment 1,ARM1,Treatment 1,CI,2025-01-09,12
STUDY001,DM,STUDY001-SUBJ0027,SUBJ0027,2025-03-21,2025-10-28,2025-07-26,2025-11-14,2025-01-08,2025-10-28,,,5,75,YEARS,M,WHITE,HISPANIC OR LATINO,ARM1,Treatment 1,ARM1,Treatment 1,ID,2025-06-20,9
STUDY001,DM,STUDY001-SUBJ0028,SUBJ0028,2025-01-22,2025-11-08,2025-09-12,2025-11-11,2024-12-07,2025-11-08,,,30,71,YEARS,M,OTHER,NOT HISPANIC OR LATINO,ARM3,Treatment 3,ARM3,Treatment 3,LI,2025-04-06,10
STUDY001,DM,STUDY001-SUBJ0029,SUBJ0029,2025-07-17,2025-11-05,2025-09-02,2025-11-09,2025-10-18,2025-11-05,,,20,61,YEARS,F,OTHER,NOT HISPANIC OR LATINO,ARM2,Treatment 2,ARM2,Treatment 2,GW,2025-08-19,4
STUDY001,DM,STUDY001-SUBJ0030,SUBJ0030,2025-04-10,2025-11-22,2025-05-04,2025-10-27,2025-05-07,2025-11-22,,,2,65,YEARS,F,ASIAN,HISPANIC OR LATINO,ARM3,Treatment 3,ARM3,Treatment 3,ZM,2025-09-07,13
STUDY001,DM,STUDY001-SUBJ0031,SUBJ0031,2025-05-19,2025-11-01,2025-01-20,2025-11-11,2025-03-05,2025-11-01,,,40,76,YEARS,M,BLACK OR AFRICAN AMERICAN,NOT HISPANIC OR LATINO,ARM1,Treatment 1,ARM1,Treatment 1,NZ,2025-10-09,20
STUDY001,DM,STUDY001-SUBJ0032,SUBJ0032,2025-08-06,2025-11-09,2024-12-26,2025-10-29,2025-01-11,2025-11-09,,,4,56,YEARS,F,ASIAN,HISPANIC OR LATINO,ARM3,Treatment 3,ARM3,Treatment 3,GR,2024-12-20,11
STUDY001,DM,STUDY001-SUBJ0033,SUBJ0033,2025-09-14,2025-11-15,2025-04-11,2025-11-10,2025-03-06,2025-11-15,,,34,28,YEARS,M,WHITE,HISPANIC OR LATINO,ARM3,Treatment 3,ARM3,Treatment 3,BH,2025-06-10,12
STUDY001,DM,STUDY001-SUBJ0034,SUBJ0034,2025-01-29,2025-11-10,2025-08-05,2025-10-27,2024-12-22,2025-11-10,,,20,49,YEARS,M,BLACK OR AFRICAN AMERICAN,NOT HISPANIC OR LATINO,ARM1,Treatment 1,ARM1,Treatment 1,CD,2025-10-15,11
STUDY001,DM,STUDY001-SUBJ0035,SUBJ0035,2025-04-25,2025-11-14,2025-03-26,2025-11-13,2025-03-18,2025-11-14,,,14,33,YEARS,M,ASIAN,HISPANIC OR LATINO,ARM1,Treatment 1,ARM1,Treatment 1,SO,2025-10-08,5
STUDY001,DM,STUDY001-SUBJ0036,SUBJ0036,2025-06-30,2025-11-10,2025-05-24,2025-10-29,2025-08-13,2025-11-10,,,10,66,YEARS,M,ASIAN,HISPANIC OR LATINO,ARM1,Treatment 1,ARM1,Treatment 1,DE,2025-01-05,21
STUDY001,DM,STUDY001-SUBJ0037,SUBJ0037,2025-03-09,2025-11-03,2025-08-07,2025-10-31,2025-01-19,2025-11-03,,,50,34,YEARS,F,BLACK OR AFRICAN AMERICAN,NOT HISPANIC OR LATINO,ARM3,Treatment 3,ARM3,Treatment 3,LU,2025-10-07,29
STUDY001,DM,STUDY001-SUBJ0038,SUBJ0038,2025-09-08,2025-11-11,2025-02-08,2025-11-11,2025-06-14,2025-11-11,,,46,63,YEARS,M,WHITE,HISPANIC OR LATINO,ARM2,Treatment 2,ARM2,Treatment 2,BS,2025-07-21,19
STUDY001,DM,STUDY001-SUBJ0039,SUBJ0039,2025-05-22,2025-11-07,2025-06-04,2025-11-15,2025-02-17,2025-11-07,,,13,26,YEARS,M,BLACK OR AFRICAN AMERICAN,HISPANIC OR LATINO,ARM1,Treatment 1,ARM1,Treatment 1,AR,2025-03-17,26
STUDY001,DM,STUDY001-SUBJ0040,SUBJ0040,2025-07-25,2025-11-08,2025-01-07,2025-11-03,2025-08-14,2025-11-08,,,30,69,YEARS,F,ASIAN,HISPANIC OR LATINO,ARM3,Treatment 3,ARM3,Treatment 3,BJ,2025-09-06,28
STUDY001,DM,STUDY001-SUBJ0041,SUBJ0041,2025-05-17,2025-11-21,2025-03-19,2025-10-28,2025-06-25,2025-11-21,,,42,63,YEARS,F,ASIAN,HISPANIC OR LATINO,ARM3,Treatment 3,ARM3,Treatment 3,TT,2025-03-12,18
STUDY001,DM,STUDY001-SUBJ0042,SUBJ0042,2025-06-12,2025-11-06,2025-03-17,2025-11-08,2024-12-31,2025-11-06,,,48,37,YEARS,M,ASIAN,NOT HISPANIC OR LATINO,ARM2,Treatment 2,ARM2,Treatment 2,SR,2025-03-05,19
STUDY001,DM,STUDY001-SUBJ0043,SUBJ0043,2025-10-14,2025-11-05,2025-01-30,2025-11-10,2025-04-24,2025-11-05,,,4,53,YEARS,M,AMERICAN INDIAN OR ALASKA NATIVE,NOT HISPANIC OR LATINO,ARM1,Treatment 1,ARM1,Treatment 1,TT,2025-09-01,25
STUDY001,DM,STUDY001-SUBJ0044,SUBJ0044,2025-08-14,2025-11-12,2025-02-16,2025-11-20,2025-04-03,2025-11-12,,,49,45,YEARS,F,ASIAN,HISPANIC OR LATINO,ARM1,Treatment 1,ARM1,Treatment 1,KI,2025-03-13,10
STUDY001,DM,STUDY001-SUBJ0045,SUBJ0045,2025-03-28,2025-11-24,2025-01-03,2025-11-01,2025-09-28,2025-11-24,,,6,69,YEARS,F,BLACK OR AFRICAN AMERICAN,NOT HISPANIC OR LATINO,ARM3,Treatment 3,ARM3,Treatment 3,NG,2024-11-28,23
STUDY001,DM,STUDY001-SUBJ0046,SUBJ0046,2025-04-07,2025-11-24,2025-07-19,2025-11-12,2024-12-25,2025-11-24,,,20,21,YEARS,F,AMERICAN INDIAN OR ALASKA NATIVE,HISPANIC OR LATINO,ARM2,Treatment 2,ARM2,Treatment 2,VE,2025-05-07,15
STUDY001,DM,STUDY001-SUBJ0047,SUBJ0047,2025-02-19,2025-11-01,2025-02-14,2025-10-28,2025-02-11,2025-11-01,,,40,50,YEARS,F,ASIAN,HISPANIC OR LATINO,ARM3,Treatment 3,ARM3,Treatment 3,LC,2025-07-02,8
STUDY001,DM,STUDY001-SUBJ0048,SUBJ0048,2024-12-24,2025-10-26,2025-07-25,2025-10-28,2025-10-07,2025-10-26,,,37,34,YEARS,M,BLACK OR AFRICAN AMERICAN,HISPANIC OR LATINO,ARM3,Treatment 3,ARM3,Treatment 3,MH,2025-03-17,27
STUDY001,DM,STUDY001-SUBJ0049,SUBJ0049,2025-05-01,2025-11-21,2025-07-02,2025-11-13,2025-04-11,2025-11-21,,,31,54,YEARS,F,BLACK OR AFRICAN AMERICAN,HISPANIC OR LATINO,ARM3,Treatment 3,ARM3,Treatment 3,TD,2025-08-11,5
STUDY001,DM,STUDY001-SUBJ0050,SUBJ0050,2024-11-28,2025-11-01,2025-08-29,2025-10-30,2025-10-05,2025-11-01,,,13,48,YEARS,M,WHITE,HISPANIC OR LATINO,ARM2,Treatment 2,ARM2,Treatment 2,DE,2025-04-15,28
STUDY001,DM,STUDY001-SUBJ0051,SUBJ0051,2025-04-24,2025-11-12,2025-04-11,2025-11-19,2025-03-04,2025-11-12,,,12,73,YEARS,F,BLACK OR AFRICAN AMERICAN,NOT HISPANIC OR LATINO,ARM2,Treatment 2,ARM1,Treatment 1,PK,2024-12-27,8
STUDY001,DM,STUDY001-SUBJ0052,SUBJ0052,2025-01-29,2025-11-07,2025-10-17,2025-11-20,2025-09-02,2025-11-07,,,50,62,YEARS,F,BLACK OR AFRICAN AMERICAN,NOT HISPANIC OR LATINO,ARM2,Treatment 2,ARM2,Treatment 2,CO,2025-02-09,29
STUDY001,DM,STUDY001-SUBJ0053,SUBJ0053,2025-06-13,2025-11-18,2025-05-01,2025-11-09,2024-12-12,2025-11-18,,,30,79,YEARS,M,AMERICAN INDIAN OR ALASKA NATIVE,NOT HISPANIC OR LATINO,ARM2,Treatment 2,ARM2,Treatment 2,WS,2025-05-15,18
STUDY001,DM,STUDY001-SUBJ0054,SUBJ0054,2025-10-10,2025-11-04,2025-03-07,2025-11-02,2024-11-30,2025-11-04,,,15,29,YEARS,F,BLACK OR AFRICAN AMERICAN,NOT HISPANIC OR LATINO,ARM2,Treatment 2,ARM2,Treatment 2,AL,2025-01-04,11
STUDY001,DM,STUDY001-SUBJ0055,SUBJ0055,2025-03-02,2025-11-13,2025-03-12,2025-11-18,2025-06-21,2025-11-13,,,43,22,YEARS,F,BLACK OR AFRICAN AMERICAN,NOT HISPANIC OR LATINO,ARM2,Treatment 2,ARM2,Treatment 2,DM,2025-07-08,28
STUDY001,DM,STUDY001-SUBJ0056,SUBJ0056,2024-11-24,2025-11-21,2025-01-11,2025-11-12,2024-12-21,2025-11-21,,,29,19,YEARS,F,ASIAN,HISPANIC OR LATINO,ARM1,Treatment 1,ARM1,Treatment 1,CR,2025-08-11,28
STUDY001,DM,STUDY001-SUBJ0057,SUBJ0057,2025-01-09,2025-11-24,2025-09-24,2025-11-02,2025-06-21,2025-11-24,,,31,24,YEARS,M,WHITE,HISPANIC OR LATINO,ARM1,Treatment 1,ARM1,Treatment 1,EE,2025-06-08,25
STUDY001,DM,STUDY001-SUBJ0058,SUBJ0058,2025-09-27,2025-11-04,2025-05-11,2025-11-16,2025-01-18,2025-11-04,,,17,66,YEARS,M,ASIAN,HISPANIC OR LATINO,ARM2,Treatment 2,ARM2,Treatment 2,PL,2024-12-31,13
STUDY001,DM,STUDY001-SUBJ0059,SUBJ0059,2025-07-20,2025-11-18,2025-09-21,2025-11-24,2025-03-29,2025-11-18,,,24,19,YEARS,M,WHITE,NOT HISPANIC OR LATINO,ARM2,Treatment 2,ARM2,Treatment 2,NP,2024-12-22,13
STUDY001,DM,STUDY001-SUBJ0060,SUBJ0060,2025-06-11,2025-11-24,2025-05-20,2025-11-22,2025-06-15,2025-11-24,,,25,57,YEARS,F,BLACK OR AFRICAN AMERICAN,HISPANIC OR LATINO,ARM2,Treatment 2,ARM2,Treatment 2,CM,2024-11-29,16
STUDY001,DM,STUDY001-SUBJ0061,SUBJ0061,2025-06-07,2025-11-03,2025-10-23,2025-11-07,2025-01-11,2025-11-03,,,9,53,YEARS,M,AMERICAN INDIAN OR ALASKA NATIVE,NOT HISPANIC OR LATINO,ARM1,Treatment 1,ARM1,Treatment 1,YE,2025-07-28,2
STUDY001,DM,STUDY001-SUBJ0062,SUBJ0062,2025-07-09,2025-11-05,2025-10-19,2025-11-11,2025-01-11,2025-11-05,,,15,70,YEARS,M,WHITE,HISPANIC OR LATINO,ARM3,Treatment 3,ARM3,Treatment 3,KP,2025-04-10,7
STUDY001,DM,STUDY001-SUBJ0063,SUBJ0063,2025-08-18,2025-11-12,2025-01-23,2025-11-03,2025-03-20,2025-11-12,,,13,78,YEARS,F,OTHER,NOT HISPANIC OR LATINO,ARM2,Treatment 2,ARM2,Treatment 2,LU,2024-11-26,16
STUDY001,DM,STUDY001-SUBJ0064,SUBJ0064,2025-06-16,2025-10-28,2025-01-02,2025-11-16,2025-06-17,2025-10-28,,,38,72,YEARS,M,BLACK OR AFRICAN AMERICAN,NOT HISPANIC OR LATINO,ARM3,Treatment 3,ARM3,Treatment 3,ES,2025-01-12,13
STUDY001,DM,STUDY001-SUBJ0065,SUBJ0065,2025-09-08,2025-10-28,2025-10-22,2025-10-31,2024-12-16,2025-10-28,,,30,30,YEARS,M,WHITE,HISPANIC OR LATINO,ARM2,Treatment 2,ARM3,Treatment 3,CN,2025-07-04,12
STUDY001,DM,STUDY001-SUBJ0066,SUBJ0066,2025-05-17,2025-11-16,2025-01-17,2025-11-03,2025-06-09,2025-11-16,,,29,24,YEARS,F,AMERICAN INDIAN OR ALASKA NATIVE,NOT HISPANIC OR LATINO,ARM1,Treatment 1,ARM1,Treatment 1,NL,2025-10-08,1
STUDY001,DM,STUDY001-SUBJ0067,SUBJ0067,2025-08-20,2025-11-16,2025-07-01,2025-11-21,2025-07-06,2025-11-16,,,33,49,YEARS,M,BLACK OR AFRICAN AMERICAN,NOT HISPANIC OR LATINO,ARM1,Treatment 1,ARM2,Treatment 2,AF,2025-05-09,10
STUDY001,DM,STUDY001-SUBJ0068,SUBJ0068,2024-11-25,2025-11-21,2025-07-10,2025-11-23,2025-01-02,2025-11-21,,,1,62,YEARS,M,AMERICAN INDIAN OR ALASKA NATIVE,NOT HISPANIC OR LATINO,ARM1,Treatment 1,ARM1,Treatment 1,NR,2025-05-30,18
STUDY001,DM,STUDY001-SUBJ0069,SUBJ0069,2025-03-17,2025-11-03,2025-09-14,2025-11-03,2024-12-25,2025-11-03,,,49,72,YEARS,F,AMERICAN INDIAN OR ALASKA NATIVE,NOT HISPANIC OR LATINO,ARM3,Treatment 3,ARM3,Treatment 3,DM,2025-05-29,12
STUDY001,DM,STUDY001-SUBJ0070,SUBJ0070,2025-02-08,2025-10-31,2025-07-24,2025-10-29,2025-06-01,2025-10-31,,,49,79,YEARS,F,OTHER,NOT HISPANIC OR LATINO,ARM1,Treatment 1,ARM1,Treatment 1,MU,2025-02-26,13
STUDY001,DM,STUDY001-SUBJ0071,SUBJ0071,2025-08-20,2025-11-16,2025-07-16,2025-10-28,2025-08-28,2025-11-16,,,42,40,YEARS,M,OTHER,NOT HISPANIC OR LATINO,ARM3,Treatment 3,ARM3,Treatment 3,GH,2025-02-17,13
STUDY001,DM,STUDY001-SUBJ0072,SUBJ0072,2025-04-29,2025-11-20,2025-08-20,2025-11-02,2025-03-01,2025-11-20,,,26,44,YEARS,M,ASIAN,HISPANIC OR LATINO,ARM2,Treatment 2,ARM2,Treatment 2,BI,2025-04-06,1
STUDY001,DM,STUDY001-SUBJ0073,SUBJ0073,2025-02-12,2025-10-27,2024-12-20,2025-11-05,2025-05-31,2025-10-27,,,43,55,YEARS,M,OTHER,NOT HISPANIC OR LATINO,ARM1,Treatment 1,ARM1,Treatment 1,CU,2025-06-01,7
STUDY001,DM,STUDY001-SUBJ0074,SUBJ0074,2024-12-07,2025-11-07,2025-06-16,2025-10-28,2025-10-06,2025-11-07,,,45,48,YEARS,F,OTHER,NOT HISPANIC OR LATINO,ARM1,Treatment 1,ARM1,Treatment 1,NO,2025-09-08,7
STUDY001,DM,STUDY001-SUBJ0075,SUBJ0075,2025-07-02,2025-11-23,2025-04-30,2025-10-27,2025-10-17,2025-11-23,,,7,64,YEARS,F,ASIAN,NOT HISPANIC OR LATINO,ARM1,Treatment 1,ARM1,Treatment 1,CZ,2025-09-24,3
STUDY001,DM,STUDY001-SUBJ0076,SUBJ0076,2025-05-21,2025-10-28,2025-02-04,2025-11-11,2025-03-21,2025-10-28,,,13,51,YEARS,M,AMERICAN INDIAN OR ALASKA NATIVE,NOT HISPANIC OR LATINO,ARM3,Treatment 3,ARM3,Treatment 3,LI,2024-12-07,7
STUDY001,DM,STUDY001-SUBJ0077,SUBJ0077,2025-03-04,2025-11-20,2024-12-25,2025-10-26,2025-06-09,2025-11-20,,,45,61,YEARS,F,ASIAN,NOT HISPANIC OR LATINO,ARM1,Treatment 1,ARM3,Treatment 3,ID,2025-03-14,22
STUDY001,DM,STUDY001-SUBJ0078,SUBJ0078,2025-08-21,2025-10-28,2025-03-10,2025-11-03,2025-07-23,2025-10-28,,,49,35,YEARS,M,WHITE,NOT HISPANIC OR LATINO,ARM1,Treatment 1,ARM1,Treatment 1,JO,2025-08-16,1
STUDY001,DM,STUDY001-SUBJ0079,SUBJ0079,2025-05-08,2025-11-04,2025-03-31,2025-11-12,2025-05-02,2025-11-04,,,19,57,YEARS,M,BLACK OR AFRICAN AMERICAN,NOT HISPANIC OR LATINO,ARM3,Treatment 3,ARM3,Treatment 3,SO,2025-09-19,5
STUDY001,DM,STUDY001-SUBJ0080,SUBJ0080,2025-02-11,2025-11-14,2025-05-09,2025-10-27,2025-03-29,2025-11-14,,,37,67,YEARS,F,BLACK OR AFRICAN AMERICAN,HISPANIC OR LATINO,ARM2,Treatment 2,ARM2,Treatment 2,ID,2025-01-28,4
STUDY001,DM,STUDY001-SUBJ0081,SUBJ0081,2025-03-31,2025-11-15,2025-06-08,2025-11-17,2025-09-13,2025-11-15,,,16,51,YEARS,M,BLACK OR AFRICAN AMERICAN,NOT HISPANIC OR LATINO,ARM3,Treatment 3,ARM2,Treatment 2,CG,2025-05-07,17
STUDY001,DM,STUDY001-SUBJ0082,SUBJ0082,2025-07-05,2025-11-17,2025-01-20,2025-10-28,2024-12-02,2025-11-17,,,33,36,YEARS,F,BLACK OR AFRICAN AMERICAN,HISPANIC OR LATINO,ARM1,Treatment 1,ARM1,Treatment 1,SG,2025-08-24,9
STUDY001,DM,STUDY001-SUBJ0083,SUBJ0083,2025-03-10,2025-11-19,2025-10-25,2025-11-01,2025-10-14,2025-11-19,,,12,64,YEARS,M,WHITE,HISPANIC OR LATINO,ARM2,Treatment 2,ARM2,Treatment 2,NA,2025-03-04,7
STUDY001,DM,STUDY001-SUBJ0084,SUBJ0084,2025-09-08,2025-11-07,2025-08-23,2025-11-14,2025-03-03,2025-11-07,,,41,53,YEARS,F,WHITE,HISPANIC OR LATINO,ARM3,Treatment 3,ARM2,Treatment 2,KH,2025-03-09,18
STUDY001,DM,STUDY001-SUBJ0085,SUBJ0085,2025-07-02,2025-11-04,2025-02-12,2025-11-14,2024-11-30,2025-11-04,,,25,78,YEARS,F,BLACK OR AFRICAN AMERICAN,HISPANIC OR LATINO,ARM3,Treatment 3,ARM3,Treatment 3,TN,2025-09-07,13
STUDY001,DM,STUDY001-SUBJ0086,SUBJ0086,2025-09-23,2025-10-28,2025-04-17,2025-11-19,2025-03-07,2025-10-28,,,33,26,YEARS,M,BLACK OR AFRICAN AMERICAN,NOT HISPANIC OR LATINO,ARM2,Treatment 2,ARM2,Treatment 2,VN,2025-10-21,1
STUDY001,DM,STUDY001-SUBJ0087,SUBJ0087,2025-06-18,2025-11-17,2025-01-03,2025-11-19,2025-04-01,2025-11-17,,,4,54,YEARS,F,OTHER,NOT HISPANIC OR LATINO,ARM1,Treatment 1,ARM1,Treatment 1,PG,2025-01-28,1
STUDY001,DM,STUDY001-SUBJ0088,SUBJ0088,2025-07-18,2025-11-09,2025-06-13,2025-11-04,2025-06-16,2025-11-09,,,47,54,YEARS,M,WHITE,NOT HISPANIC OR LATINO,ARM2,Treatment 2,ARM2,Treatment 2,GA,2025-10-15,30
STUDY001,DM,STUDY001-SUBJ0089,SUBJ0089,2024-12-14,2025-11-21,2025-03-03,2025-10-31,2025-01-16,2025-11-21,,,5,69,YEARS,M,ASIAN,NOT HISPANIC OR LATINO,ARM1,Treatment 1,ARM1,Treatment 1,RU,2025-05-26,9
STUDY001,DM,STUDY001-SUBJ0090,SUBJ0090,2025-01-12,2025-11-01,2024-11-28,2025-10-30,2025-10-06,2025-11-01,,,15,53,YEARS,F,BLACK OR AFRICAN AMERICAN,HISPANIC OR LATINO,ARM3,Treatment 3,ARM3,Treatment 3,HR,2025-04-22,13
STUDY001,DM,STUDY001-SUBJ0091,SUBJ0091,2025-06-22,2025-11-16,2025-04-15,2025-10-27,2025-03-24,2025-11-16,,,46,31,YEARS,M,OTHER,HISPANIC OR LATINO,ARM2,Treatment 2,ARM2,Treatment 2,UZ,2025-09-06,17
STUDY001,DM,STUDY001-SUBJ0092,SUBJ0092,2024-12-19,2025-11-22,2025-04-14,2025-10-31,2025-02-10,2025-11-22,,,12,80,YEARS,F,ASIAN,NOT HISPANIC OR LATINO,ARM3,Treatment 3,ARM3,Treatment 3,IN,2025-07-01,2
STUDY001,DM,STUDY001-SUBJ0093,SUBJ0093,2025-05-06,2025-11-08,2025-09-22,2025-11-19,2025-04-07,2025-11-08,,,15,45,YEARS,F,WHITE,HISPANIC OR LATINO,ARM3,Treatment 3,ARM3,Treatment 3,UZ,2025-07-08,7
STUDY001,DM,STUDY001-SUBJ0094,SUBJ0094,2025-07-21,2025-11-03,2025-07-01,2025-11-15,2025-05-08,2025-11-03,,,9,36,YEARS,F,AMERICAN INDIAN OR ALASKA NATIVE,HISPANIC OR LATINO,ARM1,Treatment 1,ARM1,Treatment 1,IL,2025-02-06,27
STUDY001,DM,STUDY001-SUBJ0095,SUBJ0095,2025-05-08,2025-11-15,2024-12-31,2025-11-24,2025-03-12,2025-11-15,,,34,48,YEARS,M,BLACK OR AFRICAN AMERICAN,HISPANIC OR LATINO,ARM3,Treatment 3,ARM3,Treatment 3,ER,2025-10-09,24
STUDY001,DM,STUDY001-SUBJ0096,SUBJ0096,2025-06-20,2025-10-28,2025-06-20,2025-11-09,2025-05-08,2025-10-28,,,32,33,YEARS,M,ASIAN,HISPANIC OR LATINO,ARM3,Treatment 3,ARM3,Treatment 3,TW,2025-09-24,5
STUDY001,DM,STUDY001-SUBJ0097,SUBJ0097,2025-01-01,2025-10-30,2025-08-31,2025-11-23,2025-07-16,2025-10-30,,,44,38,YEARS,F,BLACK OR AFRICAN AMERICAN,NOT HISPANIC OR LATINO,ARM1,Treatment 1,ARM1,Treatment 1,GH,2024-12-27,20
STUDY001,DM,STUDY001-SUBJ0098,SUBJ0098,2025-10-18,2025-10-30,2025-10-15,2025-11-15,2025-08-06,2025-10-30,,,36,28,YEARS,M,WHITE,HISPANIC OR LATINO,ARM1,Treatment 1,ARM1,Treatment 1,KM,2025-03-05,11
STUDY001,DM,STUDY001-SUBJ0099,SUBJ0099,2024-12-21,2025-11-24,2025-06-10,2025-11-20,2025-10-21,2025-11-24,,,45,79,YEARS,F,BLACK OR AFRICAN AMERICAN,NOT HISPANIC OR LATINO,ARM3,Treatment 3,ARM3,Treatment 3,WS,2025-10-24,3
STUDY001,DM,STUDY001-SUBJ0100,SUBJ0100,2025-01-27,2025-10-31,2025-08-28,2025-11-10,2024-12-25,2025-10-31,,,48,22,YEARS,M,OTHER,HISPANIC OR LATINO,ARM3,Treatment 3,ARM3,Treatment 3,AU,2025-02-26,17
