STUDYID,DOMAIN,USUBJID,EXSEQ,EXTRT,EXDOSE,EXDOSU,EXDOSFRM,EXROUTE,EXDOSFRQ,EXSTDTC,EXENDTC,VISITNUM,VISIT,EXDY
STUDY001,EX,STUDY001-SUBJ0001,1,STUDY DRUG,100,mg,TABLET,ORAL,QD,2025-09-28,2025-09-28,1,BASELINE,1
STUDY001,EX,STUDY001-SUBJ0001,2,STUDY DRUG,100,mg,TABLET,ORAL,QD,2025-10-04,2025-10-04,2,WEEK 1,7
STUDY001,EX,STUDY001-SUBJ0001,3,STUDY DRUG,100,mg,TABLET,ORAL,QD,2025-10-11,2025-10-11,3,WEEK 2,14
STUDY001,EX,STUDY001-SUBJ0001,4,STUDY DRUG,100,mg,TABLET,ORAL,QD,2025-10-25,2025-10-25,4,WEEK 4,28
STUDY001,EX,STUDY001-SUBJ0002,1,STUDY DRUG,100,mg,TABLET,ORAL,QD,2024-11-29,2024-11-29,1,BASELINE,1
STUDY001,EX,STUDY001-SUBJ0002,2,STUDY DRUG,100,mg,TABLET,ORAL,QD,2024-12-05,2024-12-05,2,WEEK 1,7
STUDY001,EX,STUDY001-SUBJ0002,3,STUDY DRUG,100,mg,TABLET,ORAL,QD,2024-12-12,2024-12-12,3,WEEK 2,14
STUDY001,EX,STUDY001-SUBJ0002,5,STUDY DRUG,100,mg,TABLET,ORAL,QD,2025-01-23,2025-01-23,5,WEEK 8,56
STUDY001,EX,STUDY001-SUBJ0002,6,STUDY DRUG,100,mg,TABLET,ORAL,QD,2025-02-20,2025-02-20,6,WEEK 12,84
STUDY001,EX,STUDY001-SUBJ0002,7,STUDY DRUG,100,mg,TABLET,ORAL,QD,2025-03-20,2025-03-20,7,WEEK 16,112
STUDY001,EX,STUDY001-SUBJ0003,1,STUDY DRUG,100,mg,TABLET,ORAL,QD,2025-02-19,2025-02-19,1,BASELINE,1
STUDY001,EX,STUDY001-SUBJ0003,2,STUDY DRUG,100,mg,TABLET,ORAL,QD,2025-02-25,2025-02-25,2,WEEK 1,7
STUDY001,EX,STUDY001-SUBJ0003,3,STUDY DRUG,100,mg,TABLET,ORAL,QD,2025-03-04,2025-03-04,3,WEEK 2,14
STUDY001,EX,STUDY001-SUBJ0003,4,STUDY DRUG,100,mg,TABLET,ORAL,QD,2025-03-18,2025-03-18,4,WEEK 4,28
STUDY001,EX,STUDY001-SUBJ0003,5,STUDY DRUG,100,mg,TABLET,ORAL,QD,2025-04-15,2025-04-15,5,WEEK 8,56
STUDY001,EX,STUDY001-SUBJ0003,6,STUDY DRUG,100,mg,TABLET,ORAL,QD,2025-05-13,2025-05-13,6,WEEK 12,84
STUDY001,EX,STUDY001-SUBJ0004,1,STUDY DRUG,100,mg,TABLET,ORAL,QD,2025-03-05,2025-03-05,1,BASELINE,1
STUDY001,EX,STUDY001-SUBJ0004,2,STUDY DRUG,100,mg,TABLET,ORAL,QD,2025-03-11,2025-03-11,2,WEEK 1,7
STUDY001,EX,STUDY001-SUBJ0004,3,STUDY DRUG,100,mg,TABLET,ORAL,QD,2025-03-18,2025-03-18,3,WEEK 2,14
STUDY001,EX,STUDY001-SUBJ0004,4,STUDY DRUG,100,mg,TABLET,ORAL,QD,2025-04-01,2025-04-01,4,WEEK 4,28
STUDY001,EX,STUDY001-SUBJ0004,5,STUDY DRUG,100,mg,TABLET,ORAL,QD,2025-04-29,2025-04-29,5,WEEK 8,56
STUDY001,EX,STUDY001-SUBJ0004,6,STUDY DRUG,100,mg,TABLET,ORAL,QD,2025-05-27,2025-05-27,6,WEEK 12,84
STUDY001,EX,STUDY001-SUBJ0004,7,STUDY DRUG,100,mg,TABLET,ORAL,QD,2025-06-24,2025-06-24,7,WEEK 16,112
STUDY001,EX,STUDY001-SUBJ0005,1,STUDY DRUG,100,mg,TABLET,ORAL,QD,2025-04-11,2025-04-11,1,BASELINE,1
STUDY001,EX,STUDY001-SUBJ0005,2,STUDY DRUG,100,mg,TABLET,ORAL,QD,2025-04-17,2025-04-17,2,WEEK 1,7
STUDY001,EX,STUDY001-SUBJ0005,3,STUDY DRUG,100,mg,TABLET,ORAL,QD,2025-04-24,2025-04-24,3,WEEK 2,14
STUDY001,EX,STUDY001-SUBJ0005,5,STUDY DRUG,100,mg,TABLET,ORAL,QD,2025-06-05,2025-06-05,5,WEEK 8,56
STUDY001,EX,STUDY001-SUBJ0005,7,STUDY DRUG,100,mg,TABLET,ORAL,QD,2025-07-31,2025-07-31,7,WEEK 16,112
STUDY001,EX,STUDY001-SUBJ0006,1,STUDY DRUG,100,mg,TABLET,ORAL,QD,2024-12-23,2024-12-23,1,BASELINE,1
STUDY001,EX,STUDY001-SUBJ0006,2,STUDY DRUG,100,mg,TABLET,ORAL,QD,2024-12-29,2024-12-29,2,WEEK 1,7
STUDY001,EX,STUDY001-SUBJ0006,3,STUDY DRUG,100,mg,TABLET,ORAL,QD,2025-01-05,2025-01-05,3,WEEK 2,14
STUDY001,EX,STUDY001-SUBJ0006,4,STUDY DRUG,100,mg,TABLET,ORAL,QD,2025-01-19,2025-01-19,4,WEEK 4,28
STUDY001,EX,STUDY001-SUBJ0006,5,STUDY DRUG,100,mg,TABLET,ORAL,QD,2025-02-16,2025-02-16,5,WEEK 8,56
STUDY001,EX,STUDY001-SUBJ0006,6,STUDY DRUG,100,mg,TABLET,ORAL,QD,2025-03-16,2025-03-16,6,WEEK 12,84
STUDY001,EX,STUDY001-SUBJ0006,7,STUDY DRUG,100,mg,TABLET,ORAL,QD,2025-04-13,2025-04-13,7,WEEK 16,112
STUDY001,EX,STUDY001-SUBJ0007,1,STUDY DRUG,100,mg,TABLET,ORAL,QD,2025-10-01,2025-10-01,1,BASELINE,1
STUDY001,EX,STUDY001-SUBJ0007,2,STUDY DRUG,100,mg,TABLET,ORAL,QD,2025-10-07,2025-10-07,2,WEEK 1,7
STUDY001,EX,STUDY001-SUBJ0007,3,STUDY DRUG,100,mg,TABLET,ORAL,QD,2025-10-14,2025-10-14,3,WEEK 2,14
STUDY001,EX,STUDY001-SUBJ0008,1,STUDY DRUG,100,mg,TABLET,ORAL,QD,2025-01-10,2025-01-10,1,BASELINE,1
STUDY001,EX,STUDY001-SUBJ0008,2,STUDY DRUG,100,mg,TABLET,ORAL,QD,2025-01-16,2025-01-16,2,WEEK 1,7
STUDY001,EX,STUDY001-SUBJ0008,3,STUDY DRUG,100,mg,TABLET,ORAL,QD,2025-01-23,2025-01-23,3,WEEK 2,14
STUDY001,EX,STUDY001-SUBJ0008,4,STUDY DRUG,100,mg,TABLET,ORAL,QD,2025-02-06,2025-02-06,4,WEEK 4,28
STUDY001,EX,STUDY001-SUBJ0008,5,STUDY DRUG,100,mg,TABLET,ORAL,QD,2025-03-06,2025-03-06,5,WEEK 8,56
STUDY001,EX,STUDY001-SUBJ0008,6,STUDY DRUG,100,mg,TABLET,ORAL,QD,2025-04-03,2025-04-03,6,WEEK 12,84
STUDY001,EX,STUDY001-SUBJ0008,7,STUDY DRUG,100,mg,TABLET,ORAL,QD,2025-05-01,2025-05-01,7,WEEK 16,112
STUDY001,EX,STUDY001-SUBJ0009,1,STUDY DRUG,100,mg,TABLET,ORAL,QD,2025-01-25,2025-01-25,1,BASELINE,1
STUDY001,EX,STUDY001-SUBJ0009,2,STUDY DRUG,100,mg,TABLET,ORAL,QD,2025-01-31,2025-01-31,2,WEEK 1,7
STUDY001,EX,STUDY001-SUBJ0009,3,STUDY DRUG,100,mg,TABLET,ORAL,QD,2025-02-07,2025-02-07,3,WEEK 2,14
STUDY001,EX,STUDY001-SUBJ0009,4,STUDY DRUG,100,mg,TABLET,ORAL,QD,2025-02-21,2025-02-21,4,WEEK 4,28
STUDY001,EX,STUDY001-SUBJ0009,5,STUDY DRUG,100,mg,TABLET,ORAL,QD,2025-03-21,2025-03-21,5,WEEK 8,56
STUDY001,EX,STUDY001-SUBJ0009,6,STUDY DRUG,100,mg,TABLET,ORAL,QD,2025-04-18,2025-04-18,6,WEEK 12,84
STUDY001,EX,STUDY001-SUBJ0009,7,STUDY DRUG,100,mg,TABLET,ORAL,QD,2025-05-16,2025-05-16,7,WEEK 16,112
STUDY001,EX,STUDY001-SUBJ0010,2,STUDY DRUG,100,mg,TABLET,ORAL,QD,2025-02-15,2025-02-15,2,WEEK 1,7
STUDY001,EX,STUDY001-SUBJ0010,3,STUDY DRUG,100,mg,TABLET,ORAL,QD,2025-02-22,2025-02-22,3,WEEK 2,14
STUDY001,EX,STUDY001-SUBJ0010,4,STUDY DRUG,100,mg,TABLET,ORAL,QD,2025-03-08,2025-03-08,4,WEEK 4,28
STUDY001,EX,STUDY001-SUBJ0010,5,STUDY DRUG,100,mg,TABLET,ORAL,QD,2025-04-05,2025-04-05,5,WEEK 8,56
STUDY001,EX,STUDY001-SUBJ0010,6,STUDY DRUG,100,mg,TABLET,ORAL,QD,2025-05-03,2025-05-03,6,WEEK 12,84
STUDY001,EX,STUDY001-SUBJ0011,1,STUDY DRUG,100,mg,TABLET,ORAL,QD,2025-09-06,2025-09-06,1,BASELINE,1
STUDY001,EX,STUDY001-SUBJ0011,2,STUDY DRUG,100,mg,TABLET,ORAL,QD,2025-09-12,2025-09-12,2,WEEK 1,7
STUDY001,EX,STUDY001-SUBJ0011,3,STUDY DRUG,100,mg,TABLET,ORAL,QD,2025-09-19,2025-09-19,3,WEEK 2,14
STUDY001,EX,STUDY001-SUBJ0011,4,STUDY DRUG,100,mg,TABLET,ORAL,QD,2025-10-03,2025-10-03,4,WEEK 4,28
STUDY001,EX,STUDY001-SUBJ0011,5,STUDY DRUG,100,mg,TABLET,ORAL,QD,2025-10-31,2025-10-31,5,WEEK 8,56
STUDY001,EX,STUDY001-SUBJ0012,1,STUDY DRUG,100,mg,TABLET,ORAL,QD,2025-04-07,2025-04-07,1,BASELINE,1
STUDY001,EX,STUDY001-SUBJ0012,2,STUDY DRUG,100,mg,TABLET,ORAL,QD,2025-04-13,2025-04-13,2,WEEK 1,7
STUDY001,EX,STUDY001-SUBJ0012,3,STUDY DRUG,100,mg,TABLET,ORAL,QD,2025-04-20,2025-04-20,3,WEEK 2,14
STUDY001,EX,STUDY001-SUBJ0012,4,STUDY DRUG,100,mg,TABLET,ORAL,QD,2025-05-04,2025-05-04,4,WEEK 4,28
STUDY001,EX,STUDY001-SUBJ0012,5,STUDY DRUG,100,mg,TABLET,ORAL,QD,2025-06-01,2025-06-01,5,WEEK 8,56
STUDY001,EX,STUDY001-SUBJ0012,6,STUDY DRUG,100,mg,TABLET,ORAL,QD,2025-06-29,2025-06-29,6,WEEK 12,84
STUDY001,EX,STUDY001-SUBJ0012,7,STUDY DRUG,100,mg,TABLET,ORAL,QD,2025-07-27,2025-07-27,7,WEEK 16,112
STUDY001,EX,STUDY001-SUBJ0013,1,STUDY DRUG,100,mg,TABLET,ORAL,QD,2025-04-13,2025-04-13,1,BASELINE,1
STUDY001,EX,STUDY001-SUBJ0013,3,STUDY DRUG,100,mg,TABLET,ORAL,QD,2025-04-26,2025-04-26,3,WEEK 2,14
STUDY001,EX,STUDY001-SUBJ0013,4,STUDY DRUG,100,mg,TABLET,ORAL,QD,2025-05-10,2025-05-10,4,WEEK 4,28
STUDY001,EX,STUDY001-SUBJ0013,5,STUDY DRUG,100,mg,TABLET,ORAL,QD,2025-06-07,2025-06-07,5,WEEK 8,56
STUDY001,EX,STUDY001-SUBJ0013,6,STUDY DRUG,100,mg,TABLET,ORAL,QD,2025-07-05,2025-07-05,6,WEEK 12,84
STUDY001,EX,STUDY001-SUBJ0013,7,STUDY DRUG,100,mg,TABLET,ORAL,QD,2025-08-02,2025-08-02,7,WEEK 16,112
STUDY001,EX,STUDY001-SUBJ0014,1,STUDY DRUG,100,mg,TABLET,ORAL,QD,2025-05-28,2025-05-28,1,BASELINE,1
STUDY001,EX,STUDY001-SUBJ0014,3,STUDY DRUG,100,mg,TABLET,ORAL,QD,2025-06-10,2025-06-10,3,WEEK 2,14
STUDY001,EX,STUDY001-SUBJ0014,4,STUDY DRUG,100,mg,TABLET,ORAL,QD,2025-06-24,2025-06-24,4,WEEK 4,28
STUDY001,EX,STUDY001-SUBJ0014,5,STUDY DRUG,100,mg,TABLET,ORAL,QD,2025-07-22,2025-07-22,5,WEEK 8,56
STUDY001,EX,STUDY001-SUBJ0014,6,STUDY DRUG,100,mg,TABLET,ORAL,QD,2025-08-19,2025-08-19,6,WEEK 12,84
STUDY001,EX,STUDY001-SUBJ0014,7,STUDY DRUG,100,mg,TABLET,ORAL,QD,2025-09-16,2025-09-16,7,WEEK 16,112
STUDY001,EX,STUDY001-SUBJ0015,1,STUDY DRUG,100,mg,TABLET,ORAL,QD,2025-10-16,2025-10-16,1,BASELINE,1
STUDY001,EX,STUDY001-SUBJ0015,2,STUDY DRUG,100,mg,TABLET,ORAL,QD,2025-10-22,2025-10-22,2,WEEK 1,7
STUDY001,EX,STUDY001-SUBJ0015,3,STUDY DRUG,100,mg,TABLET,ORAL,QD,2025-10-29,2025-10-29,3,WEEK 2,14
STUDY001,EX,STUDY001-SUBJ0016,1,STUDY DRUG,100,mg,TABLET,ORAL,QD,2025-02-12,2025-02-12,1,BASELINE,1
STUDY001,EX,STUDY001-SUBJ0016,3,STUDY DRUG,100,mg,TABLET,ORAL,QD,2025-02-25,2025-02-25,3,WEEK 2,14
STUDY001,EX,STUDY001-SUBJ0016,5,STUDY DRUG,100,mg,TABLET,ORAL,QD,2025-04-08,2025-04-08,5,WEEK 8,56
STUDY001,EX,STUDY001-SUBJ0016,6,STUDY DRUG,100,mg,TABLET,ORAL,QD,2025-05-06,2025-05-06,6,WEEK 12,84
STUDY001,EX,STUDY001-SUBJ0016,7,STUDY DRUG,100,mg,TABLET,ORAL,QD,2025-06-03,2025-06-03,7,WEEK 16,112
STUDY001,EX,STUDY001-SUBJ0017,2,STUDY DRUG,100,mg,TABLET,ORAL,QD,2025-03-09,2025-03-09,2,WEEK 1,7
STUDY001,EX,STUDY001-SUBJ0017,3,STUDY DRUG,100,mg,TABLET,ORAL,QD,2025-03-16,2025-03-16,3,WEEK 2,14
STUDY001,EX,STUDY001-SUBJ0017,4,STUDY DRUG,100,mg,TABLET,ORAL,QD,2025-03-30,2025-03-30,4,WEEK 4,28
STUDY001,EX,STUDY001-SUBJ0017,5,STUDY DRUG,100,mg,TABLET,ORAL,QD,2025-04-27,2025-04-27,5,WEEK 8,56
STUDY001,EX,STUDY001-SUBJ0017,6,STUDY DRUG,100,mg,TABLET,ORAL,QD,2025-05-25,2025-05-25,6,WEEK 12,84
STUDY001,EX,STUDY001-SUBJ0017,7,STUDY DRUG,100,mg,TABLET,ORAL,QD,2025-06-22,2025-06-22,7,WEEK 16,112
STUDY001,EX,STUDY001-SUBJ0018,1,STUDY DRUG,100,mg,TABLET,ORAL,QD,2025-04-16,2025-04-16,1,BASELINE,1
STUDY001,EX,STUDY001-SUBJ0018,2,STUDY DRUG,100,mg,TABLET,ORAL,QD,2025-04-22,2025-04-22,2,WEEK 1,7
STUDY001,EX,STUDY001-SUBJ0018,3,STUDY DRUG,100,mg,TABLET,ORAL,QD,2025-04-29,2025-04-29,3,WEEK 2,14
STUDY001,EX,STUDY001-SUBJ0018,4,STUDY DRUG,100,mg,TABLET,ORAL,QD,2025-05-13,2025-05-13,4,WEEK 4,28
STUDY001,EX,STUDY001-SUBJ0018,5,STUDY DRUG,100,mg,TABLET,ORAL,QD,2025-06-10,2025-06-10,5,WEEK 8,56
STUDY001,EX,STUDY001-SUBJ0018,6,STUDY DRUG,100,mg,TABLET,ORAL,QD,2025-07-08,2025-07-08,6,WEEK 12,84
STUDY001,EX,STUDY001-SUBJ0018,7,STUDY DRUG,100,mg,TABLET,ORAL,QD,2025-08-05,2025-08-05,7,WEEK 16,112
STUDY001,EX,STUDY001-SUBJ0019,1,STUDY DRUG,100,mg,TABLET,ORAL,QD,2025-04-29,2025-04-29,1,BASELINE,1
STUDY001,EX,STUDY001-SUBJ0019,2,STUDY DRUG,100,mg,TABLET,ORAL,QD,2025-05-05,2025-05-05,2,WEEK 1,7
STUDY001,EX,STUDY001-SUBJ0019,3,STUDY DRUG,100,mg,TABLET,ORAL,QD,2025-05-12,2025-05-12,3,WEEK 2,14
STUDY001,EX,STUDY001-SUBJ0019,4,STUDY DRUG,100,mg,TABLET,ORAL,QD,2025-05-26,2025-05-26,4,WEEK 4,28
STUDY001,EX,STUDY001-SUBJ0019,5,STUDY DRUG,100,mg,TABLET,ORAL,QD,2025-06-23,2025-06-23,5,WEEK 8,56
STUDY001,EX,STUDY001-SUBJ0019,6,STUDY DRUG,100,mg,TABLET,ORAL,QD,2025-07-21,2025-07-21,6,WEEK 12,84
STUDY001,EX,STUDY001-SUBJ0019,7,STUDY DRUG,100,mg,TABLET,ORAL,QD,2025-08-18,2025-08-18,7,WEEK 16,112
STUDY001,EX,STUDY001-SUBJ0020,1,STUDY DRUG,100,mg,TABLET,ORAL,QD,2025-08-25,2025-08-25,1,BASELINE,1
STUDY001,EX,STUDY001-SUBJ0020,2,STUDY DRUG,100,mg,TABLET,ORAL,QD,2025-08-31,2025-08-31,2,WEEK 1,7
STUDY001,EX,STUDY001-SUBJ0020,3,STUDY DRUG,100,mg,TABLET,ORAL,QD,2025-09-07,2025-09-07,3,WEEK 2,14
STUDY001,EX,STUDY001-SUBJ0020,4,STUDY DRUG,100,mg,TABLET,ORAL,QD,2025-09-21,2025-09-21,4,WEEK 4,28
STUDY001,EX,STUDY001-SUBJ0020,5,STUDY DRUG,100,mg,TABLET,ORAL,QD,2025-10-19,2025-10-19,5,WEEK 8,56
STUDY001,EX,STUDY001-SUBJ0021,1,STUDY DRUG,100,mg,TABLET,ORAL,QD,2025-02-24,2025-02-24,1,BASELINE,1
STUDY001,EX,STUDY001-SUBJ0021,2,STUDY DRUG,100,mg,TABLET,ORAL,QD,2025-03-02,2025-03-02,2,WEEK 1,7
STUDY001,EX,STUDY001-SUBJ0021,3,STUDY DRUG,100,mg,TABLET,ORAL,QD,2025-03-09,2025-03-09,3,WEEK 2,14
STUDY001,EX,STUDY001-SUBJ0021,4,STUDY DRUG,100,mg,TABLET,ORAL,QD,2025-03-23,2025-03-23,4,WEEK 4,28
STUDY001,EX,STUDY001-SUBJ0021,5,STUDY DRUG,100,mg,TABLET,ORAL,QD,2025-04-20,2025-04-20,5,WEEK 8,56
STUDY001,EX,STUDY001-SUBJ0021,6,STUDY DRUG,100,mg,TABLET,ORAL,QD,2025-05-18,2025-05-18,6,WEEK 12,84
STUDY001,EX,STUDY001-SUBJ0021,7,STUDY DRUG,100,mg,TABLET,ORAL,QD,2025-06-15,2025-06-15,7,WEEK 16,112
STUDY001,EX,STUDY001-SUBJ0022,1,STUDY DRUG,100,mg,TABLET,ORAL,QD,2025-03-19,2025-03-19,1,BASELINE,1
STUDY001,EX,STUDY001-SUBJ0022,2,STUDY DRUG,100,mg,TABLET,ORAL,QD,2025-03-25,2025-03-25,2,WEEK 1,7
STUDY001,EX,STUDY001-SUBJ0022,3,STUDY DRUG,100,mg,TABLET,ORAL,QD,2025-04-01,2025-04-01,3,WEEK 2,14
STUDY001,EX,STUDY001-SUBJ0022,4,STUDY DRUG,100,mg,TABLET,ORAL,QD,2025-04-15,2025-04-15,4,WEEK 4,28
STUDY001,EX,STUDY001-SUBJ0022,5,STUDY DRUG,100,mg,TABLET,ORAL,QD,2025-05-13,2025-05-13,5,WEEK 8,56
STUDY001,EX,STUDY001-SUBJ0022,6,STUDY DRUG,100,mg,TABLET,ORAL,QD,2025-06-10,2025-06-10,6,WEEK 12,84
STUDY001,EX,STUDY001-SUBJ0022,7,STUDY DRUG,100,mg,TABLET,ORAL,QD,2025-07-08,2025-07-08,7,WEEK 16,112
STUDY001,EX,STUDY001-SUBJ0023,1,STUDY DRUG,100,mg,TABLET,ORAL,QD,2025-03-18,2025-03-18,1,BASELINE,1
STUDY001,EX,STUDY001-SUBJ0023,2,STUDY DRUG,100,mg,TABLET,ORAL,QD,2025-03-24,2025-03-24,2,WEEK 1,7
STUDY001,EX,STUDY001-SUBJ0023,3,STUDY DRUG,100,mg,TABLET,ORAL,QD,2025-03-31,2025-03-31,3,WEEK 2,14
STUDY001,EX,STUDY001-SUBJ0023,4,STUDY DRUG,100,mg,TABLET,ORAL,QD,2025-04-14,2025-04-14,4,WEEK 4,28
STUDY001,EX,STUDY001-SUBJ0023,5,STUDY DRUG,100,mg,TABLET,ORAL,QD,2025-05-12,2025-05-12,5,WEEK 8,56
STUDY001,EX,STUDY001-SUBJ0023,6,STUDY DRUG,100,mg,TABLET,ORAL,QD,2025-06-09,2025-06-09,6,WEEK 12,84
STUDY001,EX,STUDY001-SUBJ0024,1,STUDY DRUG,100,mg,TABLET,ORAL,QD,2025-10-14,2025-10-14,1,BASELINE,1
STUDY001,EX,STUDY001-SUBJ0024,2,STUDY DRUG,100,mg,TABLET,ORAL,QD,2025-10-20,2025-10-20,2,WEEK 1,7
STUDY001,EX,STUDY001-SUBJ0024,3,STUDY DRUG,100,mg,TABLET,ORAL,QD,2025-10-27,2025-10-27,3,WEEK 2,14
STUDY001,EX,STUDY001-SUBJ0024,4,STUDY DRUG,100,mg,TABLET,ORAL,QD,2025-11-10,2025-11-10,4,WEEK 4,28
STUDY001,EX,STUDY001-SUBJ0025,1,STUDY DRUG,100,mg,TABLET,ORAL,QD,2025-07-18,2025-07-18,1,BASELINE,1
STUDY001,EX,STUDY001-SUBJ0025,2,STUDY DRUG,100,mg,TABLET,ORAL,QD,2025-07-24,2025-07-24,2,WEEK 1,7
STUDY001,EX,STUDY001-SUBJ0025,3,STUDY DRUG,100,mg,TABLET,ORAL,QD,2025-07-31,2025-07-31,3,WEEK 2,14
STUDY001,EX,STUDY001-SUBJ0025,4,STUDY DRUG,100,mg,TABLET,ORAL,QD,2025-08-14,2025-08-14,4,WEEK 4,28
STUDY001,EX,STUDY001-SUBJ0025,5,STUDY DRUG,100,mg,TABLET,ORAL,QD,2025-09-11,2025-09-11,5,WEEK 8,56
STUDY001,EX,STUDY001-SUBJ0026,2,STUDY DRUG,100,mg,TABLET,ORAL,QD,2025-09-10,2025-09-10,2,WEEK 1,7
STUDY001,EX,STUDY001-SUBJ0026,3,STUDY DRUG,100,mg,TABLET,ORAL,QD,2025-09-17,2025-09-17,3,WEEK 2,14
STUDY001,EX,STUDY001-SUBJ0026,4,STUDY DRUG,100,mg,TABLET,ORAL,QD,2025-10-01,2025-10-01,4,WEEK 4,28
STUDY001,EX,STUDY001-SUBJ0026,5,STUDY DRUG,100,mg,TABLET,ORAL,QD,2025-10-29,2025-10-29,5,WEEK 8,56
STUDY001,EX,STUDY001-SUBJ0027,1,STUDY DRUG,100,mg,TABLET,ORAL,QD,2025-07-25,2025-07-25,1,BASELINE,1
STUDY001,EX,STUDY001-SUBJ0027,2,STUDY DRUG,100,mg,TABLET,ORAL,QD,2025-07-31,2025-07-31,2,WEEK 1,7
STUDY001,EX,STUDY001-SUBJ0027,3,STUDY DRUG,100,mg,TABLET,ORAL,QD,2025-08-07,2025-08-07,3,WEEK 2,14
STUDY001,EX,STUDY001-SUBJ0027,4,STUDY DRUG,100,mg,TABLET,ORAL,QD,2025-08-21,2025-08-21,4,WEEK 4,28
STUDY001,EX,STUDY001-SUBJ0027,5,STUDY DRUG,100,mg,TABLET,ORAL,QD,2025-09-18,2025-09-18,5,WEEK 8,56
STUDY001,EX,STUDY001-SUBJ0027,6,STUDY DRUG,100,mg,TABLET,ORAL,QD,2025-10-16,2025-10-16,6,WEEK 12,84
STUDY001,EX,STUDY001-SUBJ0027,7,STUDY DRUG,100,mg,TABLET,ORAL,QD,2025-11-13,2025-11-13,7,WEEK 16,112
STUDY001,EX,STUDY001-SUBJ0028,1,STUDY DRUG,100,mg,TABLET,ORAL,QD,2024-12-18,2024-12-18,1,BASELINE,1
STUDY001,EX,STUDY001-SUBJ0028,2,STUDY DRUG,100,mg,TABLET,ORAL,QD,2024-12-24,2024-12-24,2,WEEK 1,7
STUDY001,EX,STUDY001-SUBJ0028,4,STUDY DRUG,100,mg,TABLET,ORAL,QD,2025-01-14,2025-01-14,4,WEEK 4,28
STUDY001,EX,STUDY001-SUBJ0028,5,STUDY DRUG,100,mg,TABLET,ORAL,QD,2025-02-11,2025-02-11,5,WEEK 8,56
STUDY001,EX,STUDY001-SUBJ0028,6,STUDY DRUG,100,mg,TABLET,ORAL,QD,2025-03-11,2025-03-11,6,WEEK 12,84
STUDY001,EX,STUDY001-SUBJ0028,7,STUDY DRUG,100,mg,TABLET,ORAL,QD,2025-04-08,2025-04-08,7,WEEK 16,112
STUDY001,EX,STUDY001-SUBJ0029,1,STUDY DRUG,100,mg,TABLET,ORAL,QD,2025-10-18,2025-10-18,1,BASELINE,1
STUDY001,EX,STUDY001-SUBJ0029,2,STUDY DRUG,100,mg,TABLET,ORAL,QD,2025-10-24,2025-10-24,2,WEEK 1,7
STUDY001,EX,STUDY001-SUBJ0029,3,STUDY DRUG,100,mg,TABLET,ORAL,QD,2025-10-31,2025-10-31,3,WEEK 2,14
STUDY001,EX,STUDY001-SUBJ0030,1,STUDY DRUG,100,mg,TABLET,ORAL,QD,2025-09-16,2025-09-16,1,BASELINE,1
STUDY001,EX,STUDY001-SUBJ0030,2,STUDY DRUG,100,mg,TABLET,ORAL,QD,2025-09-22,2025-09-22,2,WEEK 1,7
STUDY001,EX,STUDY001-SUBJ0030,3,STUDY DRUG,100,mg,TABLET,ORAL,QD,2025-09-29,2025-09-29,3,WEEK 2,14
STUDY001,EX,STUDY001-SUBJ0030,4,STUDY DRUG,100,mg,TABLET,ORAL,QD,2025-10-13,2025-10-13,4,WEEK 4,28
STUDY001,EX,STUDY001-SUBJ0030,5,STUDY DRUG,100,mg,TABLET,ORAL,QD,2025-11-10,2025-11-10,5,WEEK 8,56
STUDY001,EX,STUDY001-SUBJ0031,3,STUDY DRUG,100,mg,TABLET,ORAL,QD,2025-02-01,2025-02-01,3,WEEK 2,14
STUDY001,EX,STUDY001-SUBJ0031,4,STUDY DRUG,100,mg,TABLET,ORAL,QD,2025-02-15,2025-02-15,4,WEEK 4,28
STUDY001,EX,STUDY001-SUBJ0031,5,STUDY DRUG,100,mg,TABLET,ORAL,QD,2025-03-15,2025-03-15,5,WEEK 8,56
STUDY001,EX,STUDY001-SUBJ0031,6,STUDY DRUG,100,mg,TABLET,ORAL,QD,2025-04-12,2025-04-12,6,WEEK 12,84
STUDY001,EX,STUDY001-SUBJ0031,7,STUDY DRUG,100,mg,TABLET,ORAL,QD,2025-05-10,2025-05-10,7,WEEK 16,112
STUDY001,EX,STUDY001-SUBJ0032,1,STUDY DRUG,100,mg,TABLET,ORAL,QD,2025-06-05,2025-06-05,1,BASELINE,1
STUDY001,EX,STUDY001-SUBJ0032,2,STUDY DRUG,100,mg,TABLET,ORAL,QD,2025-06-11,2025-06-11,2,WEEK 1,7
STUDY001,EX,STUDY001-SUBJ0032,4,STUDY DRUG,100,mg,TABLET,ORAL,QD,2025-07-02,2025-07-02,4,WEEK 4,28
STUDY001,EX,STUDY001-SUBJ0032,5,STUDY DRUG,100,mg,TABLET,ORAL,QD,2025-07-30,2025-07-30,5,WEEK 8,56
STUDY001,EX,STUDY001-SUBJ0032,6,STUDY DRUG,100,mg,TABLET,ORAL,QD,2025-08-27,2025-08-27,6,WEEK 12,84
STUDY001,EX,STUDY001-SUBJ0032,7,STUDY DRUG,100,mg,TABLET,ORAL,QD,2025-09-24,2025-09-24,7,WEEK 16,112
STUDY001,EX,STUDY001-SUBJ0033,1,STUDY DRUG,100,mg,TABLET,ORAL,QD,2025-05-08,2025-05-08,1,BASELINE,1
STUDY001,EX,STUDY001-SUBJ0033,2,STUDY DRUG,100,mg,TABLET,ORAL,QD,2025-05-14,2025-05-14,2,WEEK 1,7
STUDY001,EX,STUDY001-SUBJ0033,3,STUDY DRUG,100,mg,TABLET,ORAL,QD,2025-05-21,2025-05-21,3,WEEK 2,14
STUDY001,EX,STUDY001-SUBJ0033,4,STUDY DRUG,100,mg,TABLET,ORAL,QD,2025-06-04,2025-06-04,4,WEEK 4,28
STUDY001,EX,STUDY001-SUBJ0033,5,STUDY DRUG,100,mg,TABLET,ORAL,QD,2025-07-02,2025-07-02,5,WEEK 8,56
STUDY001,EX,STUDY001-SUBJ0033,6,STUDY DRUG,100,mg,TABLET,ORAL,QD,2025-07-30,2025-07-30,6,WEEK 12,84
STUDY001,EX,STUDY001-SUBJ0033,7,STUDY DRUG,100,mg,TABLET,ORAL,QD,2025-08-27,2025-08-27,7,WEEK 16,112
STUDY001,EX,STUDY001-SUBJ0034,1,STUDY DRUG,100,mg,TABLET,ORAL,QD,2024-11-26,2024-11-26,1,BASELINE,1
STUDY001,EX,STUDY001-SUBJ0034,2,STUDY DRUG,100,mg,TABLET,ORAL,QD,2024-12-02,2024-12-02,2,WEEK 1,7
STUDY001,EX,STUDY001-SUBJ0034,3,STUDY DRUG,100,mg,TABLET,ORAL,QD,2024-12-09,2024-12-09,3,WEEK 2,14
STUDY001,EX,STUDY001-SUBJ0034,4,STUDY DRUG,100,mg,TABLET,ORAL,QD,2024-12-23,2024-12-23,4,WEEK 4,28
STUDY001,EX,STUDY001-SUBJ0034,5,STUDY DRUG,100,mg,TABLET,ORAL,QD,2025-01-20,2025-01-20,5,WEEK 8,56
STUDY001,EX,STUDY001-SUBJ0034,7,STUDY DRUG,100,mg,TABLET,ORAL,QD,2025-03-17,2025-03-17,7,WEEK 16,112
STUDY001,EX,STUDY001-SUBJ0035,1,STUDY DRUG,100,mg,TABLET,ORAL,QD,2025-06-01,2025-06-01,1,BASELINE,1
STUDY001,EX,STUDY001-SUBJ0035,2,STUDY DRUG,100,mg,TABLET,ORAL,QD,2025-06-07,2025-06-07,2,WEEK 1,7
STUDY001,EX,STUDY001-SUBJ0035,3,STUDY DRUG,100,mg,TABLET,ORAL,QD,2025-06-14,2025-06-14,3,WEEK 2,14
STUDY001,EX,STUDY001-SUBJ0035,4,STUDY DRUG,100,mg,TABLET,ORAL,QD,2025-06-28,2025-06-28,4,WEEK 4,28
STUDY001,EX,STUDY001-SUBJ0035,5,STUDY DRUG,100,mg,TABLET,ORAL,QD,2025-07-26,2025-07-26,5,WEEK 8,56
STUDY001,EX,STUDY001-SUBJ0035,6,STUDY DRUG,100,mg,TABLET,ORAL,QD,2025-08-23,2025-08-23,6,WEEK 12,84
STUDY001,EX,STUDY001-SUBJ0035,7,STUDY DRUG,100,mg,TABLET,ORAL,QD,2025-09-20,2025-09-20,7,WEEK 16,112
STUDY001,EX,STUDY001-SUBJ0036,1,STUDY DRUG,100,mg,TABLET,ORAL,QD,2024-12-20,2024-12-20,1,BASELINE,1
STUDY001,EX,STUDY001-SUBJ0036,2,STUDY DRUG,100,mg,TABLET,ORAL,QD,2024-12-26,2024-12-26,2,WEEK 1,7
STUDY001,EX,STUDY001-SUBJ0036,4,STUDY DRUG,100,mg,TABLET,ORAL,QD,2025-01-16,2025-01-16,4,WEEK 4,28
STUDY001,EX,STUDY001-SUBJ0036,5,STUDY DRUG,100,mg,TABLET,ORAL,QD,2025-02-13,2025-02-13,5,WEEK 8,56
STUDY001,EX,STUDY001-SUBJ0036,6,STUDY DRUG,100,mg,TABLET,ORAL,QD,2025-03-13,2025-03-13,6,WEEK 12,84
STUDY001,EX,STUDY001-SUBJ0036,7,STUDY DRUG,100,mg,TABLET,ORAL,QD,2025-04-10,2025-04-10,7,WEEK 16,112
STUDY001,EX,STUDY001-SUBJ0037,1,STUDY DRUG,100,mg,TABLET,ORAL,QD,2025-08-02,2025-08-02,1,BASELINE,1
STUDY001,EX,STUDY001-SUBJ0037,2,STUDY DRUG,100,mg,TABLET,ORAL,QD,2025-08-08,2025-08-08,2,WEEK 1,7
STUDY001,EX,STUDY001-SUBJ0037,3,STUDY DRUG,100,mg,TABLET,ORAL,QD,2025-08-15,2025-08-15,3,WEEK 2,14
STUDY001,EX,STUDY001-SUBJ0037,4,STUDY DRUG,100,mg,TABLET,ORAL,QD,2025-08-29,2025-08-29,4,WEEK 4,28
STUDY001,EX,STUDY001-SUBJ0037,5,STUDY DRUG,100,mg,TABLET,ORAL,QD,2025-09-26,2025-09-26,5,WEEK 8,56
STUDY001,EX,STUDY001-SUBJ0037,6,STUDY DRUG,100,mg,TABLET,ORAL,QD,2025-10-24,2025-10-24,6,WEEK 12,84
STUDY001,EX,STUDY001-SUBJ0038,1,STUDY DRUG,100,mg,TABLET,ORAL,QD,2024-12-15,2024-12-15,1,BASELINE,1
STUDY001,EX,STUDY001-SUBJ0038,2,STUDY DRUG,100,mg,TABLET,ORAL,QD,2024-12-21,2024-12-21,2,WEEK 1,7
STUDY001,EX,STUDY001-SUBJ0038,4,STUDY DRUG,100,mg,TABLET,ORAL,QD,2025-01-11,2025-01-11,4,WEEK 4,28
STUDY001,EX,STUDY001-SUBJ0038,5,STUDY DRUG,100,mg,TABLET,ORAL,QD,2025-02-08,2025-02-08,5,WEEK 8,56
STUDY001,EX,STUDY001-SUBJ0038,6,STUDY DRUG,100,mg,TABLET,ORAL,QD,2025-03-08,2025-03-08,6,WEEK 12,84
STUDY001,EX,STUDY001-SUBJ0038,7,STUDY DRUG,100,mg,TABLET,ORAL,QD,2025-04-05,2025-04-05,7,WEEK 16,112
STUDY001,EX,STUDY001-SUBJ0039,2,STUDY DRUG,100,mg,TABLET,ORAL,QD,2025-09-20,2025-09-20,2,WEEK 1,7
STUDY001,EX,STUDY001-SUBJ0039,3,STUDY DRUG,100,mg,TABLET,ORAL,QD,2025-09-27,2025-09-27,3,WEEK 2,14
STUDY001,EX,STUDY001-SUBJ0039,4,STUDY DRUG,100,mg,TABLET,ORAL,QD,2025-10-11,2025-10-11,4,WEEK 4,28
STUDY001,EX,STUDY001-SUBJ0040,1,STUDY DRUG,100,mg,TABLET,ORAL,QD,2025-09-25,2025-09-25,1,BASELINE,1
STUDY001,EX,STUDY001-SUBJ0040,2,STUDY DRUG,100,mg,TABLET,ORAL,QD,2025-10-01,2025-10-01,2,WEEK 1,7
STUDY001,EX,STUDY001-SUBJ0040,3,STUDY DRUG,100,mg,TABLET,ORAL,QD,2025-10-08,2025-10-08,3,WEEK 2,14
STUDY001,EX,STUDY001-SUBJ0040,4,STUDY DRUG,100,mg,TABLET,ORAL,QD,2025-10-22,2025-10-22,4,WEEK 4,28
STUDY001,EX,STUDY001-SUBJ0041,2,STUDY DRUG,100,mg,TABLET,ORAL,QD,2025-04-14,2025-04-14,2,WEEK 1,7
STUDY001,EX,STUDY001-SUBJ0041,3,STUDY DRUG,100,mg,TABLET,ORAL,QD,2025-04-21,2025-04-21,3,WEEK 2,14
STUDY001,EX,STUDY001-SUBJ0041,4,STUDY DRUG,100,mg,TABLET,ORAL,QD,2025-05-05,2025-05-05,4,WEEK 4,28
STUDY001,EX,STUDY001-SUBJ0041,6,STUDY DRUG,100,mg,TABLET,ORAL,QD,2025-06-30,2025-06-30,6,WEEK 12,84
STUDY001,EX,STUDY001-SUBJ0041,7,STUDY DRUG,100,mg,TABLET,ORAL,QD,2025-07-28,2025-07-28,7,WEEK 16,112
STUDY001,EX,STUDY001-SUBJ0042,1,STUDY DRUG,100,mg,TABLET,ORAL,QD,2025-05-16,2025-05-16,1,BASELINE,1
STUDY001,EX,STUDY001-SUBJ0042,2,STUDY DRUG,100,mg,TABLET,ORAL,QD,2025-05-22,2025-05-22,2,WEEK 1,7
STUDY001,EX,STUDY001-SUBJ0042,3,STUDY DRUG,100,mg,TABLET,ORAL,QD,2025-05-29,2025-05-29,3,WEEK 2,14
STUDY001,EX,STUDY001-SUBJ0042,4,STUDY DRUG,100,mg,TABLET,ORAL,QD,2025-06-12,2025-06-12,4,WEEK 4,28
STUDY001,EX,STUDY001-SUBJ0042,5,STUDY DRUG,100,mg,TABLET,ORAL,QD,2025-07-10,2025-07-10,5,WEEK 8,56
STUDY001,EX,STUDY001-SUBJ0042,6,STUDY DRUG,100,mg,TABLET,ORAL,QD,2025-08-07,2025-08-07,6,WEEK 12,84
STUDY001,EX,STUDY001-SUBJ0042,7,STUDY DRUG,100,mg,TABLET,ORAL,QD,2025-09-04,2025-09-04,7,WEEK 16,112
STUDY001,EX,STUDY001-SUBJ0043,1,STUDY DRUG,100,mg,TABLET,ORAL,QD,2025-09-23,2025-09-23,1,BASELINE,1
STUDY001,EX,STUDY001-SUBJ0043,2,STUDY DRUG,100,mg,TABLET,ORAL,QD,2025-09-29,2025-09-29,2,WEEK 1,7
STUDY001,EX,STUDY001-SUBJ0043,3,STUDY DRUG,100,mg,TABLET,ORAL,QD,2025-10-06,2025-10-06,3,WEEK 2,14
STUDY001,EX,STUDY001-SUBJ0043,4,STUDY DRUG,100,mg,TABLET,ORAL,QD,2025-10-20,2025-10-20,4,WEEK 4,28
STUDY001,EX,STUDY001-SUBJ0044,2,STUDY DRUG,100,mg,TABLET,ORAL,QD,2025-01-29,2025-01-29,2,WEEK 1,7
STUDY001,EX,STUDY001-SUBJ0044,3,STUDY DRUG,100,mg,TABLET,ORAL,QD,2025-02-05,2025-02-05,3,WEEK 2,14
STUDY001,EX,STUDY001-SUBJ0044,4,STUDY DRUG,100,mg,TABLET,ORAL,QD,2025-02-19,2025-02-19,4,WEEK 4,28
STUDY001,EX,STUDY001-SUBJ0044,5,STUDY DRUG,100,mg,TABLET,ORAL,QD,2025-03-19,2025-03-19,5,WEEK 8,56
STUDY001,EX,STUDY001-SUBJ0044,6,STUDY DRUG,100,mg,TABLET,ORAL,QD,2025-04-16,2025-04-16,6,WEEK 12,84
STUDY001,EX,STUDY001-SUBJ0044,7,STUDY DRUG,100,mg,TABLET,ORAL,QD,2025-05-14,2025-05-14,7,WEEK 16,112
STUDY001,EX,STUDY001-SUBJ0045,1,STUDY DRUG,100,mg,TABLET,ORAL,QD,2025-03-09,2025-03-09,1,BASELINE,1
STUDY001,EX,STUDY001-SUBJ0045,2,STUDY DRUG,100,mg,TABLET,ORAL,QD,2025-03-15,2025-03-15,2,WEEK 1,7
STUDY001,EX,STUDY001-SUBJ0045,3,STUDY DRUG,100,mg,TABLET,ORAL,QD,2025-03-22,2025-03-22,3,WEEK 2,14
STUDY001,EX,STUDY001-SUBJ0045,4,STUDY DRUG,100,mg,TABLET,ORAL,QD,2025-04-05,2025-04-05,4,WEEK 4,28
STUDY001,EX,STUDY001-SUBJ0045,5,STUDY DRUG,100,mg,TABLET,ORAL,QD,2025-05-03,2025-05-03,5,WEEK 8,56
STUDY001,EX,STUDY001-SUBJ0045,6,STUDY DRUG,100,mg,TABLET,ORAL,QD,2025-05-31,2025-05-31,6,WEEK 12,84
STUDY001,EX,STUDY001-SUBJ0045,7,STUDY DRUG,100,mg,TABLET,ORAL,QD,2025-06-28,2025-06-28,7,WEEK 16,112
STUDY001,EX,STUDY001-SUBJ0046,1,STUDY DRUG,100,mg,TABLET,ORAL,QD,2025-09-15,2025-09-15,1,BASELINE,1
STUDY001,EX,STUDY001-SUBJ0046,2,STUDY DRUG,100,mg,TABLET,ORAL,QD,2025-09-21,2025-09-21,2,WEEK 1,7
STUDY001,EX,STUDY001-SUBJ0046,3,STUDY DRUG,100,mg,TABLET,ORAL,QD,2025-09-28,2025-09-28,3,WEEK 2,14
STUDY001,EX,STUDY001-SUBJ0046,4,STUDY DRUG,100,mg,TABLET,ORAL,QD,2025-10-12,2025-10-12,4,WEEK 4,28
STUDY001,EX,STUDY001-SUBJ0046,5,STUDY DRUG,100,mg,TABLET,ORAL,QD,2025-11-09,2025-11-09,5,WEEK 8,56
STUDY001,EX,STUDY001-SUBJ0047,1,STUDY DRUG,100,mg,TABLET,ORAL,QD,2025-08-09,2025-08-09,1,BASELINE,1
STUDY001,EX,STUDY001-SUBJ0047,2,STUDY DRUG,100,mg,TABLET,ORAL,QD,2025-08-15,2025-08-15,2,WEEK 1,7
STUDY001,EX,STUDY001-SUBJ0047,3,STUDY DRUG,100,mg,TABLET,ORAL,QD,2025-08-22,2025-08-22,3,WEEK 2,14
STUDY001,EX,STUDY001-SUBJ0047,4,STUDY DRUG,100,mg,TABLET,ORAL,QD,2025-09-05,2025-09-05,4,WEEK 4,28
STUDY001,EX,STUDY001-SUBJ0047,5,STUDY DRUG,100,mg,TABLET,ORAL,QD,2025-10-03,2025-10-03,5,WEEK 8,56
STUDY001,EX,STUDY001-SUBJ0047,6,STUDY DRUG,100,mg,TABLET,ORAL,QD,2025-10-31,2025-10-31,6,WEEK 12,84
STUDY001,EX,STUDY001-SUBJ0048,2,STUDY DRUG,100,mg,TABLET,ORAL,QD,2025-01-13,2025-01-13,2,WEEK 1,7
STUDY001,EX,STUDY001-SUBJ0048,3,STUDY DRUG,100,mg,TABLET,ORAL,QD,2025-01-20,2025-01-20,3,WEEK 2,14
STUDY001,EX,STUDY001-SUBJ0048,4,STUDY DRUG,100,mg,TABLET,ORAL,QD,2025-02-03,2025-02-03,4,WEEK 4,28
STUDY001,EX,STUDY001-SUBJ0048,5,STUDY DRUG,100,mg,TABLET,ORAL,QD,2025-03-03,2025-03-03,5,WEEK 8,56
STUDY001,EX,STUDY001-SUBJ0048,6,STUDY DRUG,100,mg,TABLET,ORAL,QD,2025-03-31,2025-03-31,6,WEEK 12,84
STUDY001,EX,STUDY001-SUBJ0048,7,STUDY DRUG,100,mg,TABLET,ORAL,QD,2025-04-28,2025-04-28,7,WEEK 16,112
STUDY001,EX,STUDY001-SUBJ0049,2,STUDY DRUG,100,mg,TABLET,ORAL,QD,2025-03-08,2025-03-08,2,WEEK 1,7
STUDY001,EX,STUDY001-SUBJ0049,3,STUDY DRUG,100,mg,TABLET,ORAL,QD,2025-03-15,2025-03-15,3,WEEK 2,14
STUDY001,EX,STUDY001-SUBJ0049,4,STUDY DRUG,100,mg,TABLET,ORAL,QD,2025-03-29,2025-03-29,4,WEEK 4,28
STUDY001,EX,STUDY001-SUBJ0049,5,STUDY DRUG,100,mg,TABLET,ORAL,QD,2025-04-26,2025-04-26,5,WEEK 8,56
STUDY001,EX,STUDY001-SUBJ0049,6,STUDY DRUG,100,mg,TABLET,ORAL,QD,2025-05-24,2025-05-24,6,WEEK 12,84
STUDY001,EX,STUDY001-SUBJ0049,7,STUDY DRUG,100,mg,TABLET,ORAL,QD,2025-06-21,2025-06-21,7,WEEK 16,112
STUDY001,EX,STUDY001-SUBJ0050,1,STUDY DRUG,100,mg,TABLET,ORAL,QD,2025-06-28,2025-06-28,1,BASELINE,1
STUDY001,EX,STUDY001-SUBJ0050,2,STUDY DRUG,100,mg,TABLET,ORAL,QD,2025-07-04,2025-07-04,2,WEEK 1,7
STUDY001,EX,STUDY001-SUBJ0050,3,STUDY DRUG,100,mg,TABLET,ORAL,QD,2025-07-11,2025-07-11,3,WEEK 2,14
STUDY001,EX,STUDY001-SUBJ0050,4,STUDY DRUG,100,mg,TABLET,ORAL,QD,2025-07-25,2025-07-25,4,WEEK 4,28
STUDY001,EX,STUDY001-SUBJ0050,5,STUDY DRUG,100,mg,TABLET,ORAL,QD,2025-08-22,2025-08-22,5,WEEK 8,56
STUDY001,EX,STUDY001-SUBJ0050,6,STUDY DRUG,100,mg,TABLET,ORAL,QD,2025-09-19,2025-09-19,6,WEEK 12,84
STUDY001,EX,STUDY001-SUBJ0050,7,STUDY DRUG,100,mg,TABLET,ORAL,QD,2025-10-17,2025-10-17,7,WEEK 16,112
STUDY001,EX,STUDY001-SUBJ0051,1,STUDY DRUG,100,mg,TABLET,ORAL,QD,2025-08-07,2025-08-07,1,BASELINE,1
STUDY001,EX,STUDY001-SUBJ0051,2,STUDY DRUG,100,mg,TABLET,ORAL,QD,2025-08-13,2025-08-13,2,WEEK 1,7
STUDY001,EX,STUDY001-SUBJ0051,3,STUDY DRUG,100,mg,TABLET,ORAL,QD,2025-08-20,2025-08-20,3,WEEK 2,14
STUDY001,EX,STUDY001-SUBJ0051,4,STUDY DRUG,100,mg,TABLET,ORAL,QD,2025-09-03,2025-09-03,4,WEEK 4,28
STUDY001,EX,STUDY001-SUBJ0051,5,STUDY DRUG,100,mg,TABLET,ORAL,QD,2025-10-01,2025-10-01,5,WEEK 8,56
STUDY001,EX,STUDY001-SUBJ0051,6,STUDY DRUG,100,mg,TABLET,ORAL,QD,2025-10-29,2025-10-29,6,WEEK 12,84
STUDY001,EX,STUDY001-SUBJ0052,1,STUDY DRUG,100,mg,TABLET,ORAL,QD,2025-10-06,2025-10-06,1,BASELINE,1
STUDY001,EX,STUDY001-SUBJ0052,2,STUDY DRUG,100,mg,TABLET,ORAL,QD,2025-10-12,2025-10-12,2,WEEK 1,7
STUDY001,EX,STUDY001-SUBJ0052,3,STUDY DRUG,100,mg,TABLET,ORAL,QD,2025-10-19,2025-10-19,3,WEEK 2,14
STUDY001,EX,STUDY001-SUBJ0053,1,STUDY DRUG,100,mg,TABLET,ORAL,QD,2025-10-05,2025-10-05,1,BASELINE,1
STUDY001,EX,STUDY001-SUBJ0053,2,STUDY DRUG,100,mg,TABLET,ORAL,QD,2025-10-11,2025-10-11,2,WEEK 1,7
STUDY001,EX,STUDY001-SUBJ0053,3,STUDY DRUG,100,mg,TABLET,ORAL,QD,2025-10-18,2025-10-18,3,WEEK 2,14
STUDY001,EX,STUDY001-SUBJ0054,2,STUDY DRUG,100,mg,TABLET,ORAL,QD,2025-08-14,2025-08-14,2,WEEK 1,7
STUDY001,EX,STUDY001-SUBJ0054,3,STUDY DRUG,100,mg,TABLET,ORAL,QD,2025-08-21,2025-08-21,3,WEEK 2,14
STUDY001,EX,STUDY001-SUBJ0054,4,STUDY DRUG,100,mg,TABLET,ORAL,QD,2025-09-04,2025-09-04,4,WEEK 4,28
STUDY001,EX,STUDY001-SUBJ0054,5,STUDY DRUG,100,mg,TABLET,ORAL,QD,2025-10-02,2025-10-02,5,WEEK 8,56
STUDY001,EX,STUDY001-SUBJ0055,1,STUDY DRUG,100,mg,TABLET,ORAL,QD,2025-08-16,2025-08-16,1,BASELINE,1
STUDY001,EX,STUDY001-SUBJ0055,2,STUDY DRUG,100,mg,TABLET,ORAL,QD,2025-08-22,2025-08-22,2,WEEK 1,7
STUDY001,EX,STUDY001-SUBJ0055,3,STUDY DRUG,100,mg,TABLET,ORAL,QD,2025-08-29,2025-08-29,3,WEEK 2,14
STUDY001,EX,STUDY001-SUBJ0055,5,STUDY DRUG,100,mg,TABLET,ORAL,QD,2025-10-10,2025-10-10,5,WEEK 8,56
STUDY001,EX,STUDY001-SUBJ0055,6,STUDY DRUG,100,mg,TABLET,ORAL,QD,2025-11-07,2025-11-07,6,WEEK 12,84
STUDY001,EX,STUDY001-SUBJ0056,1,STUDY DRUG,100,mg,TABLET,ORAL,QD,2025-05-07,2025-05-07,1,BASELINE,1
STUDY001,EX,STUDY001-SUBJ0056,2,STUDY DRUG,100,mg,TABLET,ORAL,QD,2025-05-13,2025-05-13,2,WEEK 1,7
STUDY001,EX,STUDY001-SUBJ0056,3,STUDY DRUG,100,mg,TABLET,ORAL,QD,2025-05-20,2025-05-20,3,WEEK 2,14
STUDY001,EX,STUDY001-SUBJ0056,4,STUDY DRUG,100,mg,TABLET,ORAL,QD,2025-06-03,2025-06-03,4,WEEK 4,28
STUDY001,EX,STUDY001-SUBJ0056,5,STUDY DRUG,100,mg,TABLET,ORAL,QD,2025-07-01,2025-07-01,5,WEEK 8,56
STUDY001,EX,STUDY001-SUBJ0056,6,STUDY DRUG,100,mg,TABLET,ORAL,QD,2025-07-29,2025-07-29,6,WEEK 12,84
STUDY001,EX,STUDY001-SUBJ0056,7,STUDY DRUG,100,mg,TABLET,ORAL,QD,2025-08-26,2025-08-26,7,WEEK 16,112
STUDY001,EX,STUDY001-SUBJ0057,1,STUDY DRUG,100,mg,TABLET,ORAL,QD,2024-11-29,2024-11-29,1,BASELINE,1
STUDY001,EX,STUDY001-SUBJ0057,2,STUDY DRUG,100,mg,TABLET,ORAL,QD,2024-12-05,2024-12-05,2,WEEK 1,7
STUDY001,EX,STUDY001-SUBJ0057,4,STUDY DRUG,100,mg,TABLET,ORAL,QD,2024-12-26,2024-12-26,4,WEEK 4,28
STUDY001,EX,STUDY001-SUBJ0057,5,STUDY DRUG,100,mg,TABLET,ORAL,QD,2025-01-23,2025-01-23,5,WEEK 8,56
STUDY001,EX,STUDY001-SUBJ0057,6,STUDY DRUG,100,mg,TABLET,ORAL,QD,2025-02-20,2025-02-20,6,WEEK 12,84
STUDY001,EX,STUDY001-SUBJ0057,7,STUDY DRUG,100,mg,TABLET,ORAL,QD,2025-03-20,2025-03-20,7,WEEK 16,112
STUDY001,EX,STUDY001-SUBJ0058,2,STUDY DRUG,100,mg,TABLET,ORAL,QD,2025-06-20,2025-06-20,2,WEEK 1,7
STUDY001,EX,STUDY001-SUBJ0058,3,STUDY DRUG,100,mg,TABLET,ORAL,QD,2025-06-27,2025-06-27,3,WEEK 2,14
STUDY001,EX,STUDY001-SUBJ0058,4,STUDY DRUG,100,mg,TABLET,ORAL,QD,2025-07-11,2025-07-11,4,WEEK 4,28
STUDY001,EX,STUDY001-SUBJ0058,5,STUDY DRUG,100,mg,TABLET,ORAL,QD,2025-08-08,2025-08-08,5,WEEK 8,56
STUDY001,EX,STUDY001-SUBJ0058,6,STUDY DRUG,100,mg,TABLET,ORAL,QD,2025-09-05,2025-09-05,6,WEEK 12,84
STUDY001,EX,STUDY001-SUBJ0058,7,STUDY DRUG,100,mg,TABLET,ORAL,QD,2025-10-03,2025-10-03,7,WEEK 16,112
STUDY001,EX,STUDY001-SUBJ0059,1,STUDY DRUG,100,mg,TABLET,ORAL,QD,2025-10-08,2025-10-08,1,BASELINE,1
STUDY001,EX,STUDY001-SUBJ0059,2,STUDY DRUG,100,mg,TABLET,ORAL,QD,2025-10-14,2025-10-14,2,WEEK 1,7
STUDY001,EX,STUDY001-SUBJ0059,3,STUDY DRUG,100,mg,TABLET,ORAL,QD,2025-10-21,2025-10-21,3,WEEK 2,14
STUDY001,EX,STUDY001-SUBJ0059,4,STUDY DRUG,100,mg,TABLET,ORAL,QD,2025-11-04,2025-11-04,4,WEEK 4,28
STUDY001,EX,STUDY001-SUBJ0060,1,STUDY DRUG,100,mg,TABLET,ORAL,QD,2025-09-01,2025-09-01,1,BASELINE,1
STUDY001,EX,STUDY001-SUBJ0060,2,STUDY DRUG,100,mg,TABLET,ORAL,QD,2025-09-07,2025-09-07,2,WEEK 1,7
STUDY001,EX,STUDY001-SUBJ0060,3,STUDY DRUG,100,mg,TABLET,ORAL,QD,2025-09-14,2025-09-14,3,WEEK 2,14
STUDY001,EX,STUDY001-SUBJ0060,4,STUDY DRUG,100,mg,TABLET,ORAL,QD,2025-09-28,2025-09-28,4,WEEK 4,28
STUDY001,EX,STUDY001-SUBJ0060,5,STUDY DRUG,100,mg,TABLET,ORAL,QD,2025-10-26,2025-10-26,5,WEEK 8,56
STUDY001,EX,STUDY001-SUBJ0061,1,STUDY DRUG,100,mg,TABLET,ORAL,QD,2025-01-09,2025-01-09,1,BASELINE,1
STUDY001,EX,STUDY001-SUBJ0061,2,STUDY DRUG,100,mg,TABLET,ORAL,QD,2025-01-15,2025-01-15,2,WEEK 1,7
STUDY001,EX,STUDY001-SUBJ0061,3,STUDY DRUG,100,mg,TABLET,ORAL,QD,2025-01-22,2025-01-22,3,WEEK 2,14
STUDY001,EX,STUDY001-SUBJ0061,4,STUDY DRUG,100,mg,TABLET,ORAL,QD,2025-02-05,2025-02-05,4,WEEK 4,28
STUDY001,EX,STUDY001-SUBJ0061,5,STUDY DRUG,100,mg,TABLET,ORAL,QD,2025-03-05,2025-03-05,5,WEEK 8,56
STUDY001,EX,STUDY001-SUBJ0061,6,STUDY DRUG,100,mg,TABLET,ORAL,QD,2025-04-02,2025-04-02,6,WEEK 12,84
STUDY001,EX,STUDY001-SUBJ0061,7,STUDY DRUG,100,mg,TABLET,ORAL,QD,2025-04-30,2025-04-30,7,WEEK 16,112
STUDY001,EX,STUDY001-SUBJ0062,1,STUDY DRUG,100,mg,TABLET,ORAL,QD,2025-03-23,2025-03-23,1,BASELINE,1
STUDY001,EX,STUDY001-SUBJ0062,2,STUDY DRUG,100,mg,TABLET,ORAL,QD,2025-03-29,2025-03-29,2,WEEK 1,7
STUDY001,EX,STUDY001-SUBJ0062,3,STUDY DRUG,100,mg,TABLET,ORAL,QD,2025-04-05,2025-04-05,3,WEEK 2,14
STUDY001,EX,STUDY001-SUBJ0062,4,STUDY DRUG,100,mg,TABLET,ORAL,QD,2025-04-19,2025-04-19,4,WEEK 4,28
STUDY001,EX,STUDY001-SUBJ0062,5,STUDY DRUG,100,mg,TABLET,ORAL,QD,2025-05-17,2025-05-17,5,WEEK 8,56
STUDY001,EX,STUDY001-SUBJ0062,6,STUDY DRUG,100,mg,TABLET,ORAL,QD,2025-06-14,2025-06-14,6,WEEK 12,84
STUDY001,EX,STUDY001-SUBJ0062,7,STUDY DRUG,100,mg,TABLET,ORAL,QD,2025-07-12,2025-07-12,7,WEEK 16,112
STUDY001,EX,STUDY001-SUBJ0063,1,STUDY DRUG,100,mg,TABLET,ORAL,QD,2025-08-12,2025-08-12,1,BASELINE,1
STUDY001,EX,STUDY001-SUBJ0063,2,STUDY DRUG,100,mg,TABLET,ORAL,QD,2025-08-18,2025-08-18,2,WEEK 1,7
STUDY001,EX,STUDY001-SUBJ0063,3,STUDY DRUG,100,mg,TABLET,ORAL,QD,2025-08-25,2025-08-25,3,WEEK 2,14
STUDY001,EX,STUDY001-SUBJ0063,4,STUDY DRUG,100,mg,TABLET,ORAL,QD,2025-09-08,2025-09-08,4,WEEK 4,28
STUDY001,EX,STUDY001-SUBJ0063,5,STUDY DRUG,100,mg,TABLET,ORAL,QD,2025-10-06,2025-10-06,5,WEEK 8,56
STUDY001,EX,STUDY001-SUBJ0063,6,STUDY DRUG,100,mg,TABLET,ORAL,QD,2025-11-03,2025-11-03,6,WEEK 12,84
STUDY001,EX,STUDY001-SUBJ0064,1,STUDY DRUG,100,mg,TABLET,ORAL,QD,2024-12-20,2024-12-20,1,BASELINE,1
STUDY001,EX,STUDY001-SUBJ0064,2,STUDY DRUG,100,mg,TABLET,ORAL,QD,2024-12-26,2024-12-26,2,WEEK 1,7
STUDY001,EX,STUDY001-SUBJ0064,3,STUDY DRUG,100,mg,TABLET,ORAL,QD,2025-01-02,2025-01-02,3,WEEK 2,14
STUDY001,EX,STUDY001-SUBJ0064,5,STUDY DRUG,100,mg,TABLET,ORAL,QD,2025-02-13,2025-02-13,5,WEEK 8,56
STUDY001,EX,STUDY001-SUBJ0064,6,STUDY DRUG,100,mg,TABLET,ORAL,QD,2025-03-13,2025-03-13,6,WEEK 12,84
STUDY001,EX,STUDY001-SUBJ0064,7,STUDY DRUG,100,mg,TABLET,ORAL,QD,2025-04-10,2025-04-10,7,WEEK 16,112
STUDY001,EX,STUDY001-SUBJ0065,1,STUDY DRUG,100,mg,TABLET,ORAL,QD,2025-01-14,2025-01-14,1,BASELINE,1
STUDY001,EX,STUDY001-SUBJ0065,2,STUDY DRUG,100,mg,TABLET,ORAL,QD,2025-01-20,2025-01-20,2,WEEK 1,7
STUDY001,EX,STUDY001-SUBJ0065,3,STUDY DRUG,100,mg,TABLET,ORAL,QD,2025-01-27,2025-01-27,3,WEEK 2,14
STUDY001,EX,STUDY001-SUBJ0065,4,STUDY DRUG,100,mg,TABLET,ORAL,QD,2025-02-10,2025-02-10,4,WEEK 4,28
STUDY001,EX,STUDY001-SUBJ0065,5,STUDY DRUG,100,mg,TABLET,ORAL,QD,2025-03-10,2025-03-10,5,WEEK 8,56
STUDY001,EX,STUDY001-SUBJ0065,6,STUDY DRUG,100,mg,TABLET,ORAL,QD,2025-04-07,2025-04-07,6,WEEK 12,84
STUDY001,EX,STUDY001-SUBJ0065,7,STUDY DRUG,100,mg,TABLET,ORAL,QD,2025-05-05,2025-05-05,7,WEEK 16,112
STUDY001,EX,STUDY001-SUBJ0066,1,STUDY DRUG,100,mg,TABLET,ORAL,QD,2024-12-22,2024-12-22,1,BASELINE,1
STUDY001,EX,STUDY001-SUBJ0066,2,STUDY DRUG,100,mg,TABLET,ORAL,QD,2024-12-28,2024-12-28,2,WEEK 1,7
STUDY001,EX,STUDY001-SUBJ0066,3,STUDY DRUG,100,mg,TABLET,ORAL,QD,2025-01-04,2025-01-04,3,WEEK 2,14
STUDY001,EX,STUDY001-SUBJ0066,4,STUDY DRUG,100,mg,TABLET,ORAL,QD,2025-01-18,2025-01-18,4,WEEK 4,28
STUDY001,EX,STUDY001-SUBJ0066,5,STUDY DRUG,100,mg,TABLET,ORAL,QD,2025-02-15,2025-02-15,5,WEEK 8,56
STUDY001,EX,STUDY001-SUBJ0066,6,STUDY DRUG,100,mg,TABLET,ORAL,QD,2025-03-15,2025-03-15,6,WEEK 12,84
STUDY001,EX,STUDY001-SUBJ0067,1,STUDY DRUG,100,mg,TABLET,ORAL,QD,2025-09-05,2025-09-05,1,BASELINE,1
STUDY001,EX,STUDY001-SUBJ0067,2,STUDY DRUG,100,mg,TABLET,ORAL,QD,2025-09-11,2025-09-11,2,WEEK 1,7
STUDY001,EX,STUDY001-SUBJ0067,3,STUDY DRUG,100,mg,TABLET,ORAL,QD,2025-09-18,2025-09-18,3,WEEK 2,14
STUDY001,EX,STUDY001-SUBJ0067,5,STUDY DRUG,100,mg,TABLET,ORAL,QD,2025-10-30,2025-10-30,5,WEEK 8,56
STUDY001,EX,STUDY001-SUBJ0068,1,STUDY DRUG,100,mg,TABLET,ORAL,QD,2025-08-28,2025-08-28,1,BASELINE,1
STUDY001,EX,STUDY001-SUBJ0068,2,STUDY DRUG,100,mg,TABLET,ORAL,QD,2025-09-03,2025-09-03,2,WEEK 1,7
STUDY001,EX,STUDY001-SUBJ0068,3,STUDY DRUG,100,mg,TABLET,ORAL,QD,2025-09-10,2025-09-10,3,WEEK 2,14
STUDY001,EX,STUDY001-SUBJ0068,4,STUDY DRUG,100,mg,TABLET,ORAL,QD,2025-09-24,2025-09-24,4,WEEK 4,28
STUDY001,EX,STUDY001-SUBJ0068,5,STUDY DRUG,100,mg,TABLET,ORAL,QD,2025-10-22,2025-10-22,5,WEEK 8,56
STUDY001,EX,STUDY001-SUBJ0069,1,STUDY DRUG,100,mg,TABLET,ORAL,QD,2025-10-15,2025-10-15,1,BASELINE,1
STUDY001,EX,STUDY001-SUBJ0069,2,STUDY DRUG,100,mg,TABLET,ORAL,QD,2025-10-21,2025-10-21,2,WEEK 1,7
STUDY001,EX,STUDY001-SUBJ0070,1,STUDY DRUG,100,mg,TABLET,ORAL,QD,2025-08-19,2025-08-19,1,BASELINE,1
STUDY001,EX,STUDY001-SUBJ0070,3,STUDY DRUG,100,mg,TABLET,ORAL,QD,2025-09-01,2025-09-01,3,WEEK 2,14
STUDY001,EX,STUDY001-SUBJ0070,4,STUDY DRUG,100,mg,TABLET,ORAL,QD,2025-09-15,2025-09-15,4,WEEK 4,28
STUDY001,EX,STUDY001-SUBJ0070,5,STUDY DRUG,100,mg,TABLET,ORAL,QD,2025-10-13,2025-10-13,5,WEEK 8,56
STUDY001,EX,STUDY001-SUBJ0071,1,STUDY DRUG,100,mg,TABLET,ORAL,QD,2025-02-10,2025-02-10,1,BASELINE,1
STUDY001,EX,STUDY001-SUBJ0071,2,STUDY DRUG,100,mg,TABLET,ORAL,QD,2025-02-16,2025-02-16,2,WEEK 1,7
STUDY001,EX,STUDY001-SUBJ0071,3,STUDY DRUG,100,mg,TABLET,ORAL,QD,2025-02-23,2025-02-23,3,WEEK 2,14
STUDY001,EX,STUDY001-SUBJ0071,4,STUDY DRUG,100,mg,TABLET,ORAL,QD,2025-03-09,2025-03-09,4,WEEK 4,28
STUDY001,EX,STUDY001-SUBJ0071,5,STUDY DRUG,100,mg,TABLET,ORAL,QD,2025-04-06,2025-04-06,5,WEEK 8,56
STUDY001,EX,STUDY001-SUBJ0071,6,STUDY DRUG,100,mg,TABLET,ORAL,QD,2025-05-04,2025-05-04,6,WEEK 12,84
STUDY001,EX,STUDY001-SUBJ0071,7,STUDY DRUG,100,mg,TABLET,ORAL,QD,2025-06-01,2025-06-01,7,WEEK 16,112
STUDY001,EX,STUDY001-SUBJ0072,2,STUDY DRUG,100,mg,TABLET,ORAL,QD,2025-01-24,2025-01-24,2,WEEK 1,7
STUDY001,EX,STUDY001-SUBJ0072,3,STUDY DRUG,100,mg,TABLET,ORAL,QD,2025-01-31,2025-01-31,3,WEEK 2,14
STUDY001,EX,STUDY001-SUBJ0072,4,STUDY DRUG,100,mg,TABLET,ORAL,QD,2025-02-14,2025-02-14,4,WEEK 4,28
STUDY001,EX,STUDY001-SUBJ0072,5,STUDY DRUG,100,mg,TABLET,ORAL,QD,2025-03-14,2025-03-14,5,WEEK 8,56
STUDY001,EX,STUDY001-SUBJ0072,6,STUDY DRUG,100,mg,TABLET,ORAL,QD,2025-04-11,2025-04-11,6,WEEK 12,84
STUDY001,EX,STUDY001-SUBJ0072,7,STUDY DRUG,100,mg,TABLET,ORAL,QD,2025-05-09,2025-05-09,7,WEEK 16,112
STUDY001,EX,STUDY001-SUBJ0073,1,STUDY DRUG,100,mg,TABLET,ORAL,QD,2025-03-13,2025-03-13,1,BASELINE,1
STUDY001,EX,STUDY001-SUBJ0073,3,STUDY DRUG,100,mg,TABLET,ORAL,QD,2025-03-26,2025-03-26,3,WEEK 2,14
STUDY001,EX,STUDY001-SUBJ0073,4,STUDY DRUG,100,mg,TABLET,ORAL,QD,2025-04-09,2025-04-09,4,WEEK 4,28
STUDY001,EX,STUDY001-SUBJ0073,6,STUDY DRUG,100,mg,TABLET,ORAL,QD,2025-06-04,2025-06-04,6,WEEK 12,84
STUDY001,EX,STUDY001-SUBJ0073,7,STUDY DRUG,100,mg,TABLET,ORAL,QD,2025-07-02,2025-07-02,7,WEEK 16,112
STUDY001,EX,STUDY001-SUBJ0074,1,STUDY DRUG,100,mg,TABLET,ORAL,QD,2025-10-22,2025-10-22,1,BASELINE,1
STUDY001,EX,STUDY001-SUBJ0074,2,STUDY DRUG,100,mg,TABLET,ORAL,QD,2025-10-28,2025-10-28,2,WEEK 1,7
STUDY001,EX,STUDY001-SUBJ0075,1,STUDY DRUG,100,mg,TABLET,ORAL,QD,2025-04-07,2025-04-07,1,BASELINE,1
STUDY001,EX,STUDY001-SUBJ0075,2,STUDY DRUG,100,mg,TABLET,ORAL,QD,2025-04-13,2025-04-13,2,WEEK 1,7
STUDY001,EX,STUDY001-SUBJ0075,3,STUDY DRUG,100,mg,TABLET,ORAL,QD,2025-04-20,2025-04-20,3,WEEK 2,14
STUDY001,EX,STUDY001-SUBJ0075,4,STUDY DRUG,100,mg,TABLET,ORAL,QD,2025-05-04,2025-05-04,4,WEEK 4,28
STUDY001,EX,STUDY001-SUBJ0075,6,STUDY DRUG,100,mg,TABLET,ORAL,QD,2025-06-29,2025-06-29,6,WEEK 12,84
STUDY001,EX,STUDY001-SUBJ0075,7,STUDY DRUG,100,mg,TABLET,ORAL,QD,2025-07-27,2025-07-27,7,WEEK 16,112
STUDY001,EX,STUDY001-SUBJ0076,1,STUDY DRUG,100,mg,TABLET,ORAL,QD,2025-03-13,2025-03-13,1,BASELINE,1
STUDY001,EX,STUDY001-SUBJ0076,2,STUDY DRUG,100,mg,TABLET,ORAL,QD,2025-03-19,2025-03-19,2,WEEK 1,7
STUDY001,EX,STUDY001-SUBJ0076,3,STUDY DRUG,100,mg,TABLET,ORAL,QD,2025-03-26,2025-03-26,3,WEEK 2,14
STUDY001,EX,STUDY001-SUBJ0076,4,STUDY DRUG,100,mg,TABLET,ORAL,QD,2025-04-09,2025-04-09,4,WEEK 4,28
STUDY001,EX,STUDY001-SUBJ0076,5,STUDY DRUG,100,mg,TABLET,ORAL,QD,2025-05-07,2025-05-07,5,WEEK 8,56
STUDY001,EX,STUDY001-SUBJ0077,1,STUDY DRUG,100,mg,TABLET,ORAL,QD,2025-03-20,2025-03-20,1,BASELINE,1
STUDY001,EX,STUDY001-SUBJ0077,2,STUDY DRUG,100,mg,TABLET,ORAL,QD,2025-03-26,2025-03-26,2,WEEK 1,7
STUDY001,EX,STUDY001-SUBJ0077,4,STUDY DRUG,100,mg,TABLET,ORAL,QD,2025-04-16,2025-04-16,4,WEEK 4,28
STUDY001,EX,STUDY001-SUBJ0077,5,STUDY DRUG,100,mg,TABLET,ORAL,QD,2025-05-14,2025-05-14,5,WEEK 8,56
STUDY001,EX,STUDY001-SUBJ0077,6,STUDY DRUG,100,mg,TABLET,ORAL,QD,2025-06-11,2025-06-11,6,WEEK 12,84
STUDY001,EX,STUDY001-SUBJ0077,7,STUDY DRUG,100,mg,TABLET,ORAL,QD,2025-07-09,2025-07-09,7,WEEK 16,112
STUDY001,EX,STUDY001-SUBJ0078,1,STUDY DRUG,100,mg,TABLET,ORAL,QD,2025-10-17,2025-10-17,1,BASELINE,1
STUDY001,EX,STUDY001-SUBJ0078,2,STUDY DRUG,100,mg,TABLET,ORAL,QD,2025-10-23,2025-10-23,2,WEEK 1,7
STUDY001,EX,STUDY001-SUBJ0078,3,STUDY DRUG,100,mg,TABLET,ORAL,QD,2025-10-30,2025-10-30,3,WEEK 2,14
STUDY001,EX,STUDY001-SUBJ0079,1,STUDY DRUG,100,mg,TABLET,ORAL,QD,2025-05-27,2025-05-27,1,BASELINE,1
STUDY001,EX,STUDY001-SUBJ0079,2,STUDY DRUG,100,mg,TABLET,ORAL,QD,2025-06-02,2025-06-02,2,WEEK 1,7
STUDY001,EX,STUDY001-SUBJ0079,3,STUDY DRUG,100,mg,TABLET,ORAL,QD,2025-06-09,2025-06-09,3,WEEK 2,14
STUDY001,EX,STUDY001-SUBJ0079,4,STUDY DRUG,100,mg,TABLET,ORAL,QD,2025-06-23,2025-06-23,4,WEEK 4,28
STUDY001,EX,STUDY001-SUBJ0079,5,STUDY DRUG,100,mg,TABLET,ORAL,QD,2025-07-21,2025-07-21,5,WEEK 8,56
STUDY001,EX,STUDY001-SUBJ0079,6,STUDY DRUG,100,mg,TABLET,ORAL,QD,2025-08-18,2025-08-18,6,WEEK 12,84
STUDY001,EX,STUDY001-SUBJ0079,7,STUDY DRUG,100,mg,TABLET,ORAL,QD,2025-09-15,2025-09-15,7,WEEK 16,112
STUDY001,EX,STUDY001-SUBJ0080,1,STUDY DRUG,100,mg,TABLET,ORAL,QD,2025-05-06,2025-05-06,1,BASELINE,1
STUDY001,EX,STUDY001-SUBJ0080,2,STUDY DRUG,100,mg,TABLET,ORAL,QD,2025-05-12,2025-05-12,2,WEEK 1,7
STUDY001,EX,STUDY001-SUBJ0080,3,STUDY DRUG,100,mg,TABLET,ORAL,QD,2025-05-19,2025-05-19,3,WEEK 2,14
STUDY001,EX,STUDY001-SUBJ0080,4,STUDY DRUG,100,mg,TABLET,ORAL,QD,2025-06-02,2025-06-02,4,WEEK 4,28
STUDY001,EX,STUDY001-SUBJ0080,6,STUDY DRUG,100,mg,TABLET,ORAL,QD,2025-07-28,2025-07-28,6,WEEK 12,84
STUDY001,EX,STUDY001-SUBJ0080,7,STUDY DRUG,100,mg,TABLET,ORAL,QD,2025-08-25,2025-08-25,7,WEEK 16,112
STUDY001,EX,STUDY001-SUBJ0081,1,STUDY DRUG,100,mg,TABLET,ORAL,QD,2025-06-12,2025-06-12,1,BASELINE,1
STUDY001,EX,STUDY001-SUBJ0081,2,STUDY DRUG,100,mg,TABLET,ORAL,QD,2025-06-18,2025-06-18,2,WEEK 1,7
STUDY001,EX,STUDY001-SUBJ0081,3,STUDY DRUG,100,mg,TABLET,ORAL,QD,2025-06-25,2025-06-25,3,WEEK 2,14
STUDY001,EX,STUDY001-SUBJ0081,4,STUDY DRUG,100,mg,TABLET,ORAL,QD,2025-07-09,2025-07-09,4,WEEK 4,28
STUDY001,EX,STUDY001-SUBJ0081,5,STUDY DRUG,100,mg,TABLET,ORAL,QD,2025-08-06,2025-08-06,5,WEEK 8,56
STUDY001,EX,STUDY001-SUBJ0081,6,STUDY DRUG,100,mg,TABLET,ORAL,QD,2025-09-03,2025-09-03,6,WEEK 12,84
STUDY001,EX,STUDY001-SUBJ0081,7,STUDY DRUG,100,mg,TABLET,ORAL,QD,2025-10-01,2025-10-01,7,WEEK 16,112
STUDY001,EX,STUDY001-SUBJ0082,2,STUDY DRUG,100,mg,TABLET,ORAL,QD,2025-01-11,2025-01-11,2,WEEK 1,7
STUDY001,EX,STUDY001-SUBJ0082,3,STUDY DRUG,100,mg,TABLET,ORAL,QD,2025-01-18,2025-01-18,3,WEEK 2,14
STUDY001,EX,STUDY001-SUBJ0082,5,STUDY DRUG,100,mg,TABLET,ORAL,QD,2025-03-01,2025-03-01,5,WEEK 8,56
STUDY001,EX,STUDY001-SUBJ0082,6,STUDY DRUG,100,mg,TABLET,ORAL,QD,2025-03-29,2025-03-29,6,WEEK 12,84
STUDY001,EX,STUDY001-SUBJ0082,7,STUDY DRUG,100,mg,TABLET,ORAL,QD,2025-04-26,2025-04-26,7,WEEK 16,112
STUDY001,EX,STUDY001-SUBJ0083,1,STUDY DRUG,100,mg,TABLET,ORAL,QD,2025-09-23,2025-09-23,1,BASELINE,1
STUDY001,EX,STUDY001-SUBJ0083,2,STUDY DRUG,100,mg,TABLET,ORAL,QD,2025-09-29,2025-09-29,2,WEEK 1,7
STUDY001,EX,STUDY001-SUBJ0083,3,STUDY DRUG,100,mg,TABLET,ORAL,QD,2025-10-06,2025-10-06,3,WEEK 2,14
STUDY001,EX,STUDY001-SUBJ0083,4,STUDY DRUG,100,mg,TABLET,ORAL,QD,2025-10-20,2025-10-20,4,WEEK 4,28
STUDY001,EX,STUDY001-SUBJ0084,1,STUDY DRUG,100,mg,TABLET,ORAL,QD,2025-04-29,2025-04-29,1,BASELINE,1
STUDY001,EX,STUDY001-SUBJ0084,2,STUDY DRUG,100,mg,TABLET,ORAL,QD,2025-05-05,2025-05-05,2,WEEK 1,7
STUDY001,EX,STUDY001-SUBJ0084,3,STUDY DRUG,100,mg,TABLET,ORAL,QD,2025-05-12,2025-05-12,3,WEEK 2,14
STUDY001,EX,STUDY001-SUBJ0084,4,STUDY DRUG,100,mg,TABLET,ORAL,QD,2025-05-26,2025-05-26,4,WEEK 4,28
STUDY001,EX,STUDY001-SUBJ0084,5,STUDY DRUG,100,mg,TABLET,ORAL,QD,2025-06-23,2025-06-23,5,WEEK 8,56
STUDY001,EX,STUDY001-SUBJ0084,6,STUDY DRUG,100,mg,TABLET,ORAL,QD,2025-07-21,2025-07-21,6,WEEK 12,84
STUDY001,EX,STUDY001-SUBJ0084,7,STUDY DRUG,100,mg,TABLET,ORAL,QD,2025-08-18,2025-08-18,7,WEEK 16,112
STUDY001,EX,STUDY001-SUBJ0085,1,STUDY DRUG,100,mg,TABLET,ORAL,QD,2025-09-12,2025-09-12,1,BASELINE,1
STUDY001,EX,STUDY001-SUBJ0085,2,STUDY DRUG,100,mg,TABLET,ORAL,QD,2025-09-18,2025-09-18,2,WEEK 1,7
STUDY001,EX,STUDY001-SUBJ0085,3,STUDY DRUG,100,mg,TABLET,ORAL,QD,2025-09-25,2025-09-25,3,WEEK 2,14
STUDY001,EX,STUDY001-SUBJ0085,4,STUDY DRUG,100,mg,TABLET,ORAL,QD,2025-10-09,2025-10-09,4,WEEK 4,28
STUDY001,EX,STUDY001-SUBJ0085,5,STUDY DRUG,100,mg,TABLET,ORAL,QD,2025-11-06,2025-11-06,5,WEEK 8,56
STUDY001,EX,STUDY001-SUBJ0086,1,STUDY DRUG,100,mg,TABLET,ORAL,QD,2025-05-09,2025-05-09,1,BASELINE,1
STUDY001,EX,STUDY001-SUBJ0086,2,STUDY DRUG,100,mg,TABLET,ORAL,QD,2025-05-15,2025-05-15,2,WEEK 1,7
STUDY001,EX,STUDY001-SUBJ0086,3,STUDY DRUG,100,mg,TABLET,ORAL,QD,2025-05-22,2025-05-22,3,WEEK 2,14
STUDY001,EX,STUDY001-SUBJ0086,4,STUDY DRUG,100,mg,TABLET,ORAL,QD,2025-06-05,2025-06-05,4,WEEK 4,28
STUDY001,EX,STUDY001-SUBJ0086,5,STUDY DRUG,100,mg,TABLET,ORAL,QD,2025-07-03,2025-07-03,5,WEEK 8,56
STUDY001,EX,STUDY001-SUBJ0086,6,STUDY DRUG,100,mg,TABLET,ORAL,QD,2025-07-31,2025-07-31,6,WEEK 12,84
STUDY001,EX,STUDY001-SUBJ0086,7,STUDY DRUG,100,mg,TABLET,ORAL,QD,2025-08-28,2025-08-28,7,WEEK 16,112
STUDY001,EX,STUDY001-SUBJ0087,2,STUDY DRUG,100,mg,TABLET,ORAL,QD,2025-07-22,2025-07-22,2,WEEK 1,7
STUDY001,EX,STUDY001-SUBJ0087,3,STUDY DRUG,100,mg,TABLET,ORAL,QD,2025-07-29,2025-07-29,3,WEEK 2,14
STUDY001,EX,STUDY001-SUBJ0087,6,STUDY DRUG,100,mg,TABLET,ORAL,QD,2025-10-07,2025-10-07,6,WEEK 12,84
STUDY001,EX,STUDY001-SUBJ0087,7,STUDY DRUG,100,mg,TABLET,ORAL,QD,2025-11-04,2025-11-04,7,WEEK 16,112
STUDY001,EX,STUDY001-SUBJ0088,1,STUDY DRUG,100,mg,TABLET,ORAL,QD,2024-12-08,2024-12-08,1,BASELINE,1
STUDY001,EX,STUDY001-SUBJ0088,2,STUDY DRUG,100,mg,TABLET,ORAL,QD,2024-12-14,2024-12-14,2,WEEK 1,7
STUDY001,EX,STUDY001-SUBJ0088,4,STUDY DRUG,100,mg,TABLET,ORAL,QD,2025-01-04,2025-01-04,4,WEEK 4,28
STUDY001,EX,STUDY001-SUBJ0088,5,STUDY DRUG,100,mg,TABLET,ORAL,QD,2025-02-01,2025-02-01,5,WEEK 8,56
STUDY001,EX,STUDY001-SUBJ0088,6,STUDY DRUG,100,mg,TABLET,ORAL,QD,2025-03-01,2025-03-01,6,WEEK 12,84
STUDY001,EX,STUDY001-SUBJ0088,7,STUDY DRUG,100,mg,TABLET,ORAL,QD,2025-03-29,2025-03-29,7,WEEK 16,112
STUDY001,EX,STUDY001-SUBJ0089,1,STUDY DRUG,100,mg,TABLET,ORAL,QD,2025-09-17,2025-09-17,1,BASELINE,1
STUDY001,EX,STUDY001-SUBJ0089,2,STUDY DRUG,100,mg,TABLET,ORAL,QD,2025-09-23,2025-09-23,2,WEEK 1,7
STUDY001,EX,STUDY001-SUBJ0089,3,STUDY DRUG,100,mg,TABLET,ORAL,QD,2025-09-30,2025-09-30,3,WEEK 2,14
STUDY001,EX,STUDY001-SUBJ0089,4,STUDY DRUG,100,mg,TABLET,ORAL,QD,2025-10-14,2025-10-14,4,WEEK 4,28
STUDY001,EX,STUDY001-SUBJ0090,2,STUDY DRUG,100,mg,TABLET,ORAL,QD,2025-09-13,2025-09-13,2,WEEK 1,7
STUDY001,EX,STUDY001-SUBJ0090,3,STUDY DRUG,100,mg,TABLET,ORAL,QD,2025-09-20,2025-09-20,3,WEEK 2,14
STUDY001,EX,STUDY001-SUBJ0090,4,STUDY DRUG,100,mg,TABLET,ORAL,QD,2025-10-04,2025-10-04,4,WEEK 4,28
STUDY001,EX,STUDY001-SUBJ0091,1,STUDY DRUG,100,mg,TABLET,ORAL,QD,2025-08-10,2025-08-10,1,BASELINE,1
STUDY001,EX,STUDY001-SUBJ0091,2,STUDY DRUG,100,mg,TABLET,ORAL,QD,2025-08-16,2025-08-16,2,WEEK 1,7
STUDY001,EX,STUDY001-SUBJ0091,3,STUDY DRUG,100,mg,TABLET,ORAL,QD,2025-08-23,2025-08-23,3,WEEK 2,14
STUDY001,EX,STUDY001-SUBJ0091,4,STUDY DRUG,100,mg,TABLET,ORAL,QD,2025-09-06,2025-09-06,4,WEEK 4,28
STUDY001,EX,STUDY001-SUBJ0091,5,STUDY DRUG,100,mg,TABLET,ORAL,QD,2025-10-04,2025-10-04,5,WEEK 8,56
STUDY001,EX,STUDY001-SUBJ0091,6,STUDY DRUG,100,mg,TABLET,ORAL,QD,2025-11-01,2025-11-01,6,WEEK 12,84
STUDY001,EX,STUDY001-SUBJ0092,1,STUDY DRUG,100,mg,TABLET,ORAL,QD,2025-08-24,2025-08-24,1,BASELINE,1
STUDY001,EX,STUDY001-SUBJ0092,2,STUDY DRUG,100,mg,TABLET,ORAL,QD,2025-08-30,2025-08-30,2,WEEK 1,7
STUDY001,EX,STUDY001-SUBJ0092,3,STUDY DRUG,100,mg,TABLET,ORAL,QD,2025-09-06,2025-09-06,3,WEEK 2,14
STUDY001,EX,STUDY001-SUBJ0092,4,STUDY DRUG,100,mg,TABLET,ORAL,QD,2025-09-20,2025-09-20,4,WEEK 4,28
STUDY001,EX,STUDY001-SUBJ0092,5,STUDY DRUG,100,mg,TABLET,ORAL,QD,2025-10-18,2025-10-18,5,WEEK 8,56
STUDY001,EX,STUDY001-SUBJ0093,1,STUDY DRUG,100,mg,TABLET,ORAL,QD,2025-04-03,2025-04-03,1,BASELINE,1
STUDY001,EX,STUDY001-SUBJ0093,2,STUDY DRUG,100,mg,TABLET,ORAL,QD,2025-04-09,2025-04-09,2,WEEK 1,7
STUDY001,EX,STUDY001-SUBJ0093,3,STUDY DRUG,100,mg,TABLET,ORAL,QD,2025-04-16,2025-04-16,3,WEEK 2,14
STUDY001,EX,STUDY001-SUBJ0093,4,STUDY DRUG,100,mg,TABLET,ORAL,QD,2025-04-30,2025-04-30,4,WEEK 4,28
STUDY001,EX,STUDY001-SUBJ0093,5,STUDY DRUG,100,mg,TABLET,ORAL,QD,2025-05-28,2025-05-28,5,WEEK 8,56
STUDY001,EX,STUDY001-SUBJ0093,6,STUDY DRUG,100,mg,TABLET,ORAL,QD,2025-06-25,2025-06-25,6,WEEK 12,84
STUDY001,EX,STUDY001-SUBJ0093,7,STUDY DRUG,100,mg,TABLET,ORAL,QD,2025-07-23,2025-07-23,7,WEEK 16,112
STUDY001,EX,STUDY001-SUBJ0094,1,STUDY DRUG,100,mg,TABLET,ORAL,QD,2025-08-15,2025-08-15,1,BASELINE,1
STUDY001,EX,STUDY001-SUBJ0094,2,STUDY DRUG,100,mg,TABLET,ORAL,QD,2025-08-21,2025-08-21,2,WEEK 1,7
STUDY001,EX,STUDY001-SUBJ0094,3,STUDY DRUG,100,mg,TABLET,ORAL,QD,2025-08-28,2025-08-28,3,WEEK 2,14
STUDY001,EX,STUDY001-SUBJ0094,4,STUDY DRUG,100,mg,TABLET,ORAL,QD,2025-09-11,2025-09-11,4,WEEK 4,28
STUDY001,EX,STUDY001-SUBJ0094,5,STUDY DRUG,100,mg,TABLET,ORAL,QD,2025-10-09,2025-10-09,5,WEEK 8,56
STUDY001,EX,STUDY001-SUBJ0095,1,STUDY DRUG,100,mg,TABLET,ORAL,QD,2025-05-07,2025-05-07,1,BASELINE,1
STUDY001,EX,STUDY001-SUBJ0095,2,STUDY DRUG,100,mg,TABLET,ORAL,QD,2025-05-13,2025-05-13,2,WEEK 1,7
STUDY001,EX,STUDY001-SUBJ0095,3,STUDY DRUG,100,mg,TABLET,ORAL,QD,2025-05-20,2025-05-20,3,WEEK 2,14
STUDY001,EX,STUDY001-SUBJ0095,4,STUDY DRUG,100,mg,TABLET,ORAL,QD,2025-06-03,2025-06-03,4,WEEK 4,28
STUDY001,EX,STUDY001-SUBJ0095,5,STUDY DRUG,100,mg,TABLET,ORAL,QD,2025-07-01,2025-07-01,5,WEEK 8,56
STUDY001,EX,STUDY001-SUBJ0095,6,STUDY DRUG,100,mg,TABLET,ORAL,QD,2025-07-29,2025-07-29,6,WEEK 12,84
STUDY001,EX,STUDY001-SUBJ0095,7,STUDY DRUG,100,mg,TABLET,ORAL,QD,2025-08-26,2025-08-26,7,WEEK 16,112
STUDY001,EX,STUDY001-SUBJ0096,1,STUDY DRUG,100,mg,TABLET,ORAL,QD,2025-02-01,2025-02-01,1,BASELINE,1
STUDY001,EX,STUDY001-SUBJ0096,2,STUDY DRUG,100,mg,TABLET,ORAL,QD,2025-02-07,2025-02-07,2,WEEK 1,7
STUDY001,EX,STUDY001-SUBJ0096,3,STUDY DRUG,100,mg,TABLET,ORAL,QD,2025-02-14,2025-02-14,3,WEEK 2,14
STUDY001,EX,STUDY001-SUBJ0096,4,STUDY DRUG,100,mg,TABLET,ORAL,QD,2025-02-28,2025-02-28,4,WEEK 4,28
STUDY001,EX,STUDY001-SUBJ0096,5,STUDY DRUG,100,mg,TABLET,ORAL,QD,2025-03-28,2025-03-28,5,WEEK 8,56
STUDY001,EX,STUDY001-SUBJ0096,6,STUDY DRUG,100,mg,TABLET,ORAL,QD,2025-04-25,2025-04-25,6,WEEK 12,84
STUDY001,EX,STUDY001-SUBJ0096,7,STUDY DRUG,100,mg,TABLET,ORAL,QD,2025-05-23,2025-05-23,7,WEEK 16,112
STUDY001,EX,STUDY001-SUBJ0097,1,STUDY DRUG,100,mg,TABLET,ORAL,QD,2025-07-25,2025-07-25,1,BASELINE,1
STUDY001,EX,STUDY001-SUBJ0097,2,STUDY DRUG,100,mg,TABLET,ORAL,QD,2025-07-31,2025-07-31,2,WEEK 1,7
STUDY001,EX,STUDY001-SUBJ0097,3,STUDY DRUG,100,mg,TABLET,ORAL,QD,2025-08-07,2025-08-07,3,WEEK 2,14
STUDY001,EX,STUDY001-SUBJ0097,4,STUDY DRUG,100,mg,TABLET,ORAL,QD,2025-08-21,2025-08-21,4,WEEK 4,28
STUDY001,EX,STUDY001-SUBJ0097,5,STUDY DRUG,100,mg,TABLET,ORAL,QD,2025-09-18,2025-09-18,5,WEEK 8,56
STUDY001,EX,STUDY001-SUBJ0097,6,STUDY DRUG,100,mg,TABLET,ORAL,QD,2025-10-16,2025-10-16,6,WEEK 12,84
STUDY001,EX,STUDY001-SUBJ0098,1,STUDY DRUG,100,mg,TABLET,ORAL,QD,2025-09-13,2025-09-13,1,BASELINE,1
STUDY001,EX,STUDY001-SUBJ0098,3,STUDY DRUG,100,mg,TABLET,ORAL,QD,2025-09-26,2025-09-26,3,WEEK 2,14
STUDY001,EX,STUDY001-SUBJ0099,2,STUDY DRUG,100,mg,TABLET,ORAL,QD,2025-09-01,2025-09-01,2,WEEK 1,7
STUDY001,EX,STUDY001-SUBJ0099,3,STUDY DRUG,100,mg,TABLET,ORAL,QD,2025-09-08,2025-09-08,3,WEEK 2,14
STUDY001,EX,STUDY001-SUBJ0099,4,STUDY DRUG,100,mg,TABLET,ORAL,QD,2025-09-22,2025-09-22,4,WEEK 4,28
STUDY001,EX,STUDY001-SUBJ0099,5,STUDY DRUG,100,mg,TABLET,ORAL,QD,2025-10-20,2025-10-20,5,WEEK 8,56
STUDY001,EX,STUDY001-SUBJ0100,1,STUDY DRUG,100,mg,TABLET,ORAL,QD,2025-04-17,2025-04-17,1,BASELINE,1
STUDY001,EX,STUDY001-SUBJ0100,2,STUDY DRUG,100,mg,TABLET,ORAL,QD,2025-04-23,2025-04-23,2,WEEK 1,7
STUDY001,EX,STUDY001-SUBJ0100,3,STUDY DRUG,100,mg,TABLET,ORAL,QD,2025-04-30,2025-04-30,3,WEEK 2,14
STUDY001,EX,STUDY001-SUBJ0100,4,STUDY DRUG,100,mg,TABLET,ORAL,QD,2025-05-14,2025-05-14,4,WEEK 4,28
STUDY001,EX,STUDY001-SUBJ0100,5,STUDY DRUG,100,mg,TABLET,ORAL,QD,2025-06-11,2025-06-11,5,WEEK 8,56
STUDY001,EX,STUDY001-SUBJ0100,6,STUDY DRUG,100,mg,TABLET,ORAL,QD,2025-07-09,2025-07-09,6,WEEK 12,84
STUDY001,EX,STUDY001-SUBJ0100,7,STUDY DRUG,100,mg,TABLET,ORAL,QD,2025-08-06,2025-08-06,7,WEEK 16,112
