STUDYID,DOMAIN,USUBJID,VSSEQ,VSTESTCD,VSTEST,VSORRES,VSORRESU,VSSTRESC,VSSTRESN,VSSTRESU,VSBLFL,VISIT,VISITNUM,VSDTC,VSDY
STUDY001,VS,STUDY001-SUBJ0001,1,HEIGHT,Height,174.8,cm,174.8,174.8,cm,,SCREENING,1,2025-03-05,-14
STUDY001,VS,STUDY001-SUBJ0001,2,WEIGHT,Weight,114.9,kg,114.9,114.9,kg,,SCREENING,1,2025-03-05,-14
STUDY001,VS,STUDY001-SUBJ0001,3,TEMP,Temperature,37.0,C,37.0,37.0,C,,SCREENING,1,2025-03-05,-14
STUDY001,VS,STUDY001-SUBJ0001,4,BP,Blood Pressure,142/98,mmHg,142/98,,mmHg,,SCREENING,1,2025-03-05,-14
STUDY001,VS,STUDY001-SUBJ0001,5,HR,Heart Rate,90,beats/min,90,90.0,beats/min,,SCREENING,1,2025-03-05,-14
STUDY001,VS,STUDY001-SUBJ0001,6,HEIGHT,Height,174.9,cm,174.9,174.9,cm,Y,BASELINE,2,2025-03-19,1
STUDY001,VS,STUDY001-SUBJ0001,7,WEIGHT,Weight,115.6,kg,115.6,115.6,kg,Y,BASELINE,2,2025-03-19,1
STUDY001,VS,STUDY001-SUBJ0001,8,TEMP,Temperature,37.0,C,37.0,37.0,C,Y,BASELINE,2,2025-03-19,1
STUDY001,VS,STUDY001-SUBJ0001,9,BP,Blood Pressure,136/90,mmHg,136/90,,mmHg,Y,BASELINE,2,2025-03-19,1
STUDY001,VS,STUDY001-SUBJ0001,10,HR,Heart Rate,90,beats/min,90,90.0,beats/min,Y,BASELINE,2,2025-03-19,1
STUDY001,VS,STUDY001-SUBJ0001,11,HEIGHT,Height,174.8,cm,174.8,174.8,cm,,WEEK 1,3,2025-03-25,7
STUDY001,VS,STUDY001-SUBJ0001,12,WEIGHT,Weight,115.6,kg,115.6,115.6,kg,,WEEK 1,3,2025-03-25,7
STUDY001,VS,STUDY001-SUBJ0001,13,TEMP,Temperature,36.7,C,36.7,36.7,C,,WEEK 1,3,2025-03-25,7
STUDY001,VS,STUDY001-SUBJ0001,14,BP,Blood Pressure,140/90,mmHg,140/90,,mmHg,,WEEK 1,3,2025-03-25,7
STUDY001,VS,STUDY001-SUBJ0001,15,HR,Heart Rate,82,beats/min,82,82.0,beats/min,,WEEK 1,3,2025-03-25,7
STUDY001,VS,STUDY001-SUBJ0001,16,HEIGHT,Height,175.0,cm,175.0,175.0,cm,,WEEK 2,4,2025-04-01,14
STUDY001,VS,STUDY001-SUBJ0001,17,WEIGHT,Weight,114.9,kg,114.9,114.9,kg,,WEEK 2,4,2025-04-01,14
STUDY001,VS,STUDY001-SUBJ0001,18,TEMP,Temperature,36.8,C,36.8,36.8,C,,WEEK 2,4,2025-04-01,14
STUDY001,VS,STUDY001-SUBJ0001,19,BP,Blood Pressure,138/96,mmHg,138/96,,mmHg,,WEEK 2,4,2025-04-01,14
STUDY001,VS,STUDY001-SUBJ0001,20,HR,Heart Rate,86,beats/min,86,86.0,beats/min,,WEEK 2,4,2025-04-01,14
STUDY001,VS,STUDY001-SUBJ0001,21,HEIGHT,Height,174.9,cm,174.9,174.9,cm,,WEEK 4,5,2025-04-15,28
STUDY001,VS,STUDY001-SUBJ0001,22,WEIGHT,Weight,114.8,kg,114.8,114.8,kg,,WEEK 4,5,2025-04-15,28
STUDY001,VS,STUDY001-SUBJ0001,23,TEMP,Temperature,37.0,C,37.0,37.0,C,,WEEK 4,5,2025-04-15,28
STUDY001,VS,STUDY001-SUBJ0001,24,BP,Blood Pressure,143/94,mmHg,143/94,,mmHg,,WEEK 4,5,2025-04-15,28
STUDY001,VS,STUDY001-SUBJ0001,25,HR,Heart Rate,82,beats/min,82,82.0,beats/min,,WEEK 4,5,2025-04-15,28
STUDY001,VS,STUDY001-SUBJ0001,26,HEIGHT,Height,174.7,cm,174.7,174.7,cm,,WEEK 8,6,2025-05-13,56
STUDY001,VS,STUDY001-SUBJ0001,27,WEIGHT,Weight,114.3,kg,114.3,114.3,kg,,WEEK 8,6,2025-05-13,56
STUDY001,VS,STUDY001-SUBJ0001,28,TEMP,Temperature,36.4,C,36.4,36.4,C,,WEEK 8,6,2025-05-13,56
STUDY001,VS,STUDY001-SUBJ0001,29,BP,Blood Pressure,137/90,mmHg,137/90,,mmHg,,WEEK 8,6,2025-05-13,56
STUDY001,VS,STUDY001-SUBJ0001,30,HR,Heart Rate,82,beats/min,82,82.0,beats/min,,WEEK 8,6,2025-05-13,56
STUDY001,VS,STUDY001-SUBJ0001,31,HEIGHT,Height,174.6,cm,174.6,174.6,cm,,WEEK 12,7,2025-06-10,84
STUDY001,VS,STUDY001-SUBJ0001,32,WEIGHT,Weight,114.4,kg,114.4,114.4,kg,,WEEK 12,7,2025-06-10,84
STUDY001,VS,STUDY001-SUBJ0001,33,TEMP,Temperature,36.6,C,36.6,36.6,C,,WEEK 12,7,2025-06-10,84
STUDY001,VS,STUDY001-SUBJ0001,34,BP,Blood Pressure,140/92,mmHg,140/92,,mmHg,,WEEK 12,7,2025-06-10,84
STUDY001,VS,STUDY001-SUBJ0001,35,HR,Heart Rate,91,beats/min,91,91.0,beats/min,,WEEK 12,7,2025-06-10,84
STUDY001,VS,STUDY001-SUBJ0001,36,HEIGHT,Height,174.9,cm,174.9,174.9,cm,,WEEK 16,8,2025-07-08,112
STUDY001,VS,STUDY001-SUBJ0001,37,WEIGHT,Weight,115.4,kg,115.4,115.4,kg,,WEEK 16,8,2025-07-08,112
STUDY001,VS,STUDY001-SUBJ0001,38,TEMP,Temperature,36.5,C,36.5,36.5,C,,WEEK 16,8,2025-07-08,112
STUDY001,VS,STUDY001-SUBJ0001,39,BP,Blood Pressure,136/95,mmHg,136/95,,mmHg,,WEEK 16,8,2025-07-08,112
STUDY001,VS,STUDY001-SUBJ0001,40,HR,Heart Rate,83,beats/min,83,83.0,beats/min,,WEEK 16,8,2025-07-08,112
STUDY001,VS,STUDY001-SUBJ0001,41,HEIGHT,Height,174.8,cm,174.8,174.8,cm,,END OF TREATMENT,9,2025-08-05,140
STUDY001,VS,STUDY001-SUBJ0001,42,WEIGHT,Weight,115.1,kg,115.1,115.1,kg,,END OF TREATMENT,9,2025-08-05,140
STUDY001,VS,STUDY001-SUBJ0001,43,TEMP,Temperature,36.6,C,36.6,36.6,C,,END OF TREATMENT,9,2025-08-05,140
STUDY001,VS,STUDY001-SUBJ0001,44,BP,Blood Pressure,135/98,mmHg,135/98,,mmHg,,END OF TREATMENT,9,2025-08-05,140
STUDY001,VS,STUDY001-SUBJ0001,45,HR,Heart Rate,83,beats/min,83,83.0,beats/min,,END OF TREATMENT,9,2025-08-05,140
STUDY001,VS,STUDY001-SUBJ0002,1,HEIGHT,Height,179.2,cm,179.2,179.2,cm,,SCREENING,1,2025-07-04,-14
STUDY001,VS,STUDY001-SUBJ0002,2,WEIGHT,Weight,61.9,kg,61.9,61.9,kg,,SCREENING,1,2025-07-04,-14
STUDY001,VS,STUDY001-SUBJ0002,3,TEMP,Temperature,36.7,C,36.7,36.7,C,,SCREENING,1,2025-07-04,-14
STUDY001,VS,STUDY001-SUBJ0002,4,BP,Blood Pressure,107/67,mmHg,107/67,,mmHg,,SCREENING,1,2025-07-04,-14
STUDY001,VS,STUDY001-SUBJ0002,5,HR,Heart Rate,81,beats/min,81,81.0,beats/min,,SCREENING,1,2025-07-04,-14
STUDY001,VS,STUDY001-SUBJ0002,6,HEIGHT,Height,179.0,cm,179.0,179.0,cm,Y,BASELINE,2,2025-07-18,1
STUDY001,VS,STUDY001-SUBJ0002,7,WEIGHT,Weight,62.1,kg,62.1,62.1,kg,Y,BASELINE,2,2025-07-18,1
STUDY001,VS,STUDY001-SUBJ0002,8,TEMP,Temperature,36.8,C,36.8,36.8,C,Y,BASELINE,2,2025-07-18,1
STUDY001,VS,STUDY001-SUBJ0002,9,BP,Blood Pressure,105/69,mmHg,105/69,,mmHg,Y,BASELINE,2,2025-07-18,1
STUDY001,VS,STUDY001-SUBJ0002,10,HR,Heart Rate,82,beats/min,82,82.0,beats/min,Y,BASELINE,2,2025-07-18,1
STUDY001,VS,STUDY001-SUBJ0002,11,HEIGHT,Height,179.1,cm,179.1,179.1,cm,,WEEK 1,3,2025-07-24,7
STUDY001,VS,STUDY001-SUBJ0002,12,WEIGHT,Weight,62.9,kg,62.9,62.9,kg,,WEEK 1,3,2025-07-24,7
STUDY001,VS,STUDY001-SUBJ0002,13,TEMP,Temperature,36.6,C,36.6,36.6,C,,WEEK 1,3,2025-07-24,7
STUDY001,VS,STUDY001-SUBJ0002,14,BP,Blood Pressure,103/68,mmHg,103/68,,mmHg,,WEEK 1,3,2025-07-24,7
STUDY001,VS,STUDY001-SUBJ0002,15,HR,Heart Rate,80,beats/min,80,80.0,beats/min,,WEEK 1,3,2025-07-24,7
STUDY001,VS,STUDY001-SUBJ0002,16,HEIGHT,Height,179.2,cm,179.2,179.2,cm,,WEEK 2,4,2025-07-31,14
STUDY001,VS,STUDY001-SUBJ0002,17,WEIGHT,Weight,62.0,kg,62.0,62.0,kg,,WEEK 2,4,2025-07-31,14
STUDY001,VS,STUDY001-SUBJ0002,18,TEMP,Temperature,36.4,C,36.4,36.4,C,,WEEK 2,4,2025-07-31,14
STUDY001,VS,STUDY001-SUBJ0002,19,BP,Blood Pressure,107/72,mmHg,107/72,,mmHg,,WEEK 2,4,2025-07-31,14
STUDY001,VS,STUDY001-SUBJ0002,20,HR,Heart Rate,79,beats/min,79,79.0,beats/min,,WEEK 2,4,2025-07-31,14
STUDY001,VS,STUDY001-SUBJ0002,21,HEIGHT,Height,179.2,cm,179.2,179.2,cm,,WEEK 4,5,2025-08-14,28
STUDY001,VS,STUDY001-SUBJ0002,22,WEIGHT,Weight,62.0,kg,62.0,62.0,kg,,WEEK 4,5,2025-08-14,28
STUDY001,VS,STUDY001-SUBJ0002,23,TEMP,Temperature,36.6,C,36.6,36.6,C,,WEEK 4,5,2025-08-14,28
STUDY001,VS,STUDY001-SUBJ0002,24,BP,Blood Pressure,102/67,mmHg,102/67,,mmHg,,WEEK 4,5,2025-08-14,28
STUDY001,VS,STUDY001-SUBJ0002,25,HR,Heart Rate,85,beats/min,85,85.0,beats/min,,WEEK 4,5,2025-08-14,28
STUDY001,VS,STUDY001-SUBJ0002,26,HEIGHT,Height,179.3,cm,179.3,179.3,cm,,WEEK 8,6,2025-09-11,56
STUDY001,VS,STUDY001-SUBJ0002,27,WEIGHT,Weight,62.8,kg,62.8,62.8,kg,,WEEK 8,6,2025-09-11,56
STUDY001,VS,STUDY001-SUBJ0002,28,TEMP,Temperature,36.5,C,36.5,36.5,C,,WEEK 8,6,2025-09-11,56
STUDY001,VS,STUDY001-SUBJ0002,29,BP,Blood Pressure,105/74,mmHg,105/74,,mmHg,,WEEK 8,6,2025-09-11,56
STUDY001,VS,STUDY001-SUBJ0002,30,HR,Heart Rate,81,beats/min,81,81.0,beats/min,,WEEK 8,6,2025-09-11,56
STUDY001,VS,STUDY001-SUBJ0002,31,HEIGHT,Height,179.3,cm,179.3,179.3,cm,,WEEK 12,7,2025-10-09,84
STUDY001,VS,STUDY001-SUBJ0002,32,WEIGHT,Weight,62.1,kg,62.1,62.1,kg,,WEEK 12,7,2025-10-09,84
STUDY001,VS,STUDY001-SUBJ0002,33,TEMP,Temperature,36.7,C,36.7,36.7,C,,WEEK 12,7,2025-10-09,84
STUDY001,VS,STUDY001-SUBJ0002,34,BP,Blood Pressure,109/74,mmHg,109/74,,mmHg,,WEEK 12,7,2025-10-09,84
STUDY001,VS,STUDY001-SUBJ0002,35,HR,Heart Rate,82,beats/min,82,82.0,beats/min,,WEEK 12,7,2025-10-09,84
STUDY001,VS,STUDY001-SUBJ0002,36,HEIGHT,Height,179.2,cm,179.2,179.2,cm,,WEEK 16,8,2025-11-06,112
STUDY001,VS,STUDY001-SUBJ0002,37,WEIGHT,Weight,61.2,kg,61.2,61.2,kg,,WEEK 16,8,2025-11-06,112
STUDY001,VS,STUDY001-SUBJ0002,38,TEMP,Temperature,36.5,C,36.5,36.5,C,,WEEK 16,8,2025-11-06,112
STUDY001,VS,STUDY001-SUBJ0002,39,BP,Blood Pressure,106/68,mmHg,106/68,,mmHg,,WEEK 16,8,2025-11-06,112
STUDY001,VS,STUDY001-SUBJ0002,40,HR,Heart Rate,85,beats/min,85,85.0,beats/min,,WEEK 16,8,2025-11-06,112
STUDY001,VS,STUDY001-SUBJ0002,41,HEIGHT,Height,179.0,cm,179.0,179.0,cm,,END OF TREATMENT,9,2025-12-04,140
STUDY001,VS,STUDY001-SUBJ0002,42,WEIGHT,Weight,62.5,kg,62.5,62.5,kg,,END OF TREATMENT,9,2025-12-04,140
STUDY001,VS,STUDY001-SUBJ0002,43,TEMP,Temperature,36.5,C,36.5,36.5,C,,END OF TREATMENT,9,2025-12-04,140
STUDY001,VS,STUDY001-SUBJ0002,44,BP,Blood Pressure,106/74,mmHg,106/74,,mmHg,,END OF TREATMENT,9,2025-12-04,140
STUDY001,VS,STUDY001-SUBJ0002,45,HR,Heart Rate,83,beats/min,83,83.0,beats/min,,END OF TREATMENT,9,2025-12-04,140
STUDY001,VS,STUDY001-SUBJ0003,1,HEIGHT,Height,189.3,cm,189.3,189.3,cm,,SCREENING,1,2025-01-19,-14
STUDY001,VS,STUDY001-SUBJ0003,2,WEIGHT,Weight,58.7,kg,58.7,58.7,kg,,SCREENING,1,2025-01-19,-14
STUDY001,VS,STUDY001-SUBJ0003,3,TEMP,Temperature,36.8,C,36.8,36.8,C,,SCREENING,1,2025-01-19,-14
STUDY001,VS,STUDY001-SUBJ0003,4,BP,Blood Pressure,110/92,mmHg,110/92,,mmHg,,SCREENING,1,2025-01-19,-14
STUDY001,VS,STUDY001-SUBJ0003,5,HR,Heart Rate,79,beats/min,79,79.0,beats/min,,SCREENING,1,2025-01-19,-14
STUDY001,VS,STUDY001-SUBJ0003,6,HEIGHT,Height,189.4,cm,189.4,189.4,cm,Y,BASELINE,2,2025-02-02,1
STUDY001,VS,STUDY001-SUBJ0003,7,WEIGHT,Weight,58.9,kg,58.9,58.9,kg,Y,BASELINE,2,2025-02-02,1
STUDY001,VS,STUDY001-SUBJ0003,8,TEMP,Temperature,36.5,C,36.5,36.5,C,Y,BASELINE,2,2025-02-02,1
STUDY001,VS,STUDY001-SUBJ0003,9,BP,Blood Pressure,108/84,mmHg,108/84,,mmHg,Y,BASELINE,2,2025-02-02,1
STUDY001,VS,STUDY001-SUBJ0003,10,HR,Heart Rate,77,beats/min,77,77.0,beats/min,Y,BASELINE,2,2025-02-02,1
STUDY001,VS,STUDY001-SUBJ0003,11,HEIGHT,Height,189.1,cm,189.1,189.1,cm,,WEEK 1,3,2025-02-08,7
STUDY001,VS,STUDY001-SUBJ0003,12,WEIGHT,Weight,59.8,kg,59.8,59.8,kg,,WEEK 1,3,2025-02-08,7
STUDY001,VS,STUDY001-SUBJ0003,13,TEMP,Temperature,36.7,C,36.7,36.7,C,,WEEK 1,3,2025-02-08,7
STUDY001,VS,STUDY001-SUBJ0003,14,BP,Blood Pressure,115/83,mmHg,115/83,,mmHg,,WEEK 1,3,2025-02-08,7
STUDY001,VS,STUDY001-SUBJ0003,15,HR,Heart Rate,75,beats/min,75,75.0,beats/min,,WEEK 1,3,2025-02-08,7
STUDY001,VS,STUDY001-SUBJ0003,16,HEIGHT,Height,189.1,cm,189.1,189.1,cm,,WEEK 2,4,2025-02-15,14
STUDY001,VS,STUDY001-SUBJ0003,17,WEIGHT,Weight,58.1,kg,58.1,58.1,kg,,WEEK 2,4,2025-02-15,14
STUDY001,VS,STUDY001-SUBJ0003,18,TEMP,Temperature,36.9,C,36.9,36.9,C,,WEEK 2,4,2025-02-15,14
STUDY001,VS,STUDY001-SUBJ0003,19,BP,Blood Pressure,112/84,mmHg,112/84,,mmHg,,WEEK 2,4,2025-02-15,14
STUDY001,VS,STUDY001-SUBJ0003,20,HR,Heart Rate,72,beats/min,72,72.0,beats/min,,WEEK 2,4,2025-02-15,14
STUDY001,VS,STUDY001-SUBJ0003,21,HEIGHT,Height,189.1,cm,189.1,189.1,cm,,WEEK 4,5,2025-03-01,28
STUDY001,VS,STUDY001-SUBJ0003,22,WEIGHT,Weight,58.2,kg,58.2,58.2,kg,,WEEK 4,5,2025-03-01,28
STUDY001,VS,STUDY001-SUBJ0003,23,TEMP,Temperature,36.8,C,36.8,36.8,C,,WEEK 4,5,2025-03-01,28
STUDY001,VS,STUDY001-SUBJ0003,24,BP,Blood Pressure,116/85,mmHg,116/85,,mmHg,,WEEK 4,5,2025-03-01,28
STUDY001,VS,STUDY001-SUBJ0003,25,HR,Heart Rate,71,beats/min,71,71.0,beats/min,,WEEK 4,5,2025-03-01,28
STUDY001,VS,STUDY001-SUBJ0003,26,HEIGHT,Height,189.5,cm,189.5,189.5,cm,,WEEK 8,6,2025-03-29,56
STUDY001,VS,STUDY001-SUBJ0003,27,WEIGHT,Weight,59.3,kg,59.3,59.3,kg,,WEEK 8,6,2025-03-29,56
STUDY001,VS,STUDY001-SUBJ0003,28,TEMP,Temperature,36.8,C,36.8,36.8,C,,WEEK 8,6,2025-03-29,56
STUDY001,VS,STUDY001-SUBJ0003,29,BP,Blood Pressure,109/90,mmHg,109/90,,mmHg,,WEEK 8,6,2025-03-29,56
STUDY001,VS,STUDY001-SUBJ0003,30,HR,Heart Rate,79,beats/min,79,79.0,beats/min,,WEEK 8,6,2025-03-29,56
STUDY001,VS,STUDY001-SUBJ0003,31,HEIGHT,Height,189.1,cm,189.1,189.1,cm,,WEEK 12,7,2025-04-26,84
STUDY001,VS,STUDY001-SUBJ0003,32,WEIGHT,Weight,59.4,kg,59.4,59.4,kg,,WEEK 12,7,2025-04-26,84
STUDY001,VS,STUDY001-SUBJ0003,33,TEMP,Temperature,36.5,C,36.5,36.5,C,,WEEK 12,7,2025-04-26,84
STUDY001,VS,STUDY001-SUBJ0003,34,BP,Blood Pressure,106/89,mmHg,106/89,,mmHg,,WEEK 12,7,2025-04-26,84
STUDY001,VS,STUDY001-SUBJ0003,35,HR,Heart Rate,72,beats/min,72,72.0,beats/min,,WEEK 12,7,2025-04-26,84
STUDY001,VS,STUDY001-SUBJ0003,36,HEIGHT,Height,189.4,cm,189.4,189.4,cm,,WEEK 16,8,2025-05-24,112
STUDY001,VS,STUDY001-SUBJ0003,37,WEIGHT,Weight,59.4,kg,59.4,59.4,kg,,WEEK 16,8,2025-05-24,112
STUDY001,VS,STUDY001-SUBJ0003,38,TEMP,Temperature,36.4,C,36.4,36.4,C,,WEEK 16,8,2025-05-24,112
STUDY001,VS,STUDY001-SUBJ0003,39,BP,Blood Pressure,113/90,mmHg,113/90,,mmHg,,WEEK 16,8,2025-05-24,112
STUDY001,VS,STUDY001-SUBJ0003,40,HR,Heart Rate,70,beats/min,70,70.0,beats/min,,WEEK 16,8,2025-05-24,112
STUDY001,VS,STUDY001-SUBJ0003,41,HEIGHT,Height,189.4,cm,189.4,189.4,cm,,END OF TREATMENT,9,2025-06-21,140
STUDY001,VS,STUDY001-SUBJ0003,42,WEIGHT,Weight,59.1,kg,59.1,59.1,kg,,END OF TREATMENT,9,2025-06-21,140
STUDY001,VS,STUDY001-SUBJ0003,43,TEMP,Temperature,36.9,C,36.9,36.9,C,,END OF TREATMENT,9,2025-06-21,140
STUDY001,VS,STUDY001-SUBJ0003,44,BP,Blood Pressure,110/87,mmHg,110/87,,mmHg,,END OF TREATMENT,9,2025-06-21,140
STUDY001,VS,STUDY001-SUBJ0003,45,HR,Heart Rate,71,beats/min,71,71.0,beats/min,,END OF TREATMENT,9,2025-06-21,140
STUDY001,VS,STUDY001-SUBJ0004,1,HEIGHT,Height,167.1,cm,167.1,167.1,cm,,SCREENING,1,2024-11-26,-14
STUDY001,VS,STUDY001-SUBJ0004,2,WEIGHT,Weight,111.6,kg,111.6,111.6,kg,,SCREENING,1,2024-11-26,-14
STUDY001,VS,STUDY001-SUBJ0004,3,TEMP,Temperature,36.5,C,36.5,36.5,C,,SCREENING,1,2024-11-26,-14
STUDY001,VS,STUDY001-SUBJ0004,4,BP,Blood Pressure,129/91,mmHg,129/91,,mmHg,,SCREENING,1,2024-11-26,-14
STUDY001,VS,STUDY001-SUBJ0004,5,HR,Heart Rate,71,beats/min,71,71.0,beats/min,,SCREENING,1,2024-11-26,-14
STUDY001,VS,STUDY001-SUBJ0004,6,HEIGHT,Height,166.9,cm,166.9,166.9,cm,Y,BASELINE,2,2024-12-10,1
STUDY001,VS,STUDY001-SUBJ0004,7,WEIGHT,Weight,110.2,kg,110.2,110.2,kg,Y,BASELINE,2,2024-12-10,1
STUDY001,VS,STUDY001-SUBJ0004,8,TEMP,Temperature,37.0,C,37.0,37.0,C,Y,BASELINE,2,2024-12-10,1
STUDY001,VS,STUDY001-SUBJ0004,9,BP,Blood Pressure,121/84,mmHg,121/84,,mmHg,Y,BASELINE,2,2024-12-10,1
STUDY001,VS,STUDY001-SUBJ0004,10,HR,Heart Rate,64,beats/min,64,64.0,beats/min,Y,BASELINE,2,2024-12-10,1
STUDY001,VS,STUDY001-SUBJ0004,11,HEIGHT,Height,167.1,cm,167.1,167.1,cm,,WEEK 1,3,2024-12-16,7
STUDY001,VS,STUDY001-SUBJ0004,12,WEIGHT,Weight,111.9,kg,111.9,111.9,kg,,WEEK 1,3,2024-12-16,7
STUDY001,VS,STUDY001-SUBJ0004,13,TEMP,Temperature,37.0,C,37.0,37.0,C,,WEEK 1,3,2024-12-16,7
STUDY001,VS,STUDY001-SUBJ0004,14,BP,Blood Pressure,127/88,mmHg,127/88,,mmHg,,WEEK 1,3,2024-12-16,7
STUDY001,VS,STUDY001-SUBJ0004,15,HR,Heart Rate,69,beats/min,69,69.0,beats/min,,WEEK 1,3,2024-12-16,7
STUDY001,VS,STUDY001-SUBJ0004,16,HEIGHT,Height,167.1,cm,167.1,167.1,cm,,WEEK 2,4,2024-12-23,14
STUDY001,VS,STUDY001-SUBJ0004,17,WEIGHT,Weight,111.7,kg,111.7,111.7,kg,,WEEK 2,4,2024-12-23,14
STUDY001,VS,STUDY001-SUBJ0004,18,TEMP,Temperature,36.6,C,36.6,36.6,C,,WEEK 2,4,2024-12-23,14
STUDY001,VS,STUDY001-SUBJ0004,19,BP,Blood Pressure,124/87,mmHg,124/87,,mmHg,,WEEK 2,4,2024-12-23,14
STUDY001,VS,STUDY001-SUBJ0004,20,HR,Heart Rate,63,beats/min,63,63.0,beats/min,,WEEK 2,4,2024-12-23,14
STUDY001,VS,STUDY001-SUBJ0004,21,HEIGHT,Height,167.0,cm,167.0,167.0,cm,,WEEK 4,5,2025-01-06,28
STUDY001,VS,STUDY001-SUBJ0004,22,WEIGHT,Weight,112.0,kg,112.0,112.0,kg,,WEEK 4,5,2025-01-06,28
STUDY001,VS,STUDY001-SUBJ0004,23,TEMP,Temperature,36.6,C,36.6,36.6,C,,WEEK 4,5,2025-01-06,28
STUDY001,VS,STUDY001-SUBJ0004,24,BP,Blood Pressure,124/83,mmHg,124/83,,mmHg,,WEEK 4,5,2025-01-06,28
STUDY001,VS,STUDY001-SUBJ0004,25,HR,Heart Rate,65,beats/min,65,65.0,beats/min,,WEEK 4,5,2025-01-06,28
STUDY001,VS,STUDY001-SUBJ0004,26,HEIGHT,Height,167.2,cm,167.2,167.2,cm,,WEEK 8,6,2025-02-03,56
STUDY001,VS,STUDY001-SUBJ0004,27,WEIGHT,Weight,112.1,kg,112.1,112.1,kg,,WEEK 8,6,2025-02-03,56
STUDY001,VS,STUDY001-SUBJ0004,28,TEMP,Temperature,36.9,C,36.9,36.9,C,,WEEK 8,6,2025-02-03,56
STUDY001,VS,STUDY001-SUBJ0004,29,BP,Blood Pressure,126/88,mmHg,126/88,,mmHg,,WEEK 8,6,2025-02-03,56
STUDY001,VS,STUDY001-SUBJ0004,30,HR,Heart Rate,63,beats/min,63,63.0,beats/min,,WEEK 8,6,2025-02-03,56
STUDY001,VS,STUDY001-SUBJ0004,31,HEIGHT,Height,167.2,cm,167.2,167.2,cm,,WEEK 12,7,2025-03-03,84
STUDY001,VS,STUDY001-SUBJ0004,32,WEIGHT,Weight,111.8,kg,111.8,111.8,kg,,WEEK 12,7,2025-03-03,84
STUDY001,VS,STUDY001-SUBJ0004,33,TEMP,Temperature,36.7,C,36.7,36.7,C,,WEEK 12,7,2025-03-03,84
STUDY001,VS,STUDY001-SUBJ0004,34,BP,Blood Pressure,130/85,mmHg,130/85,,mmHg,,WEEK 12,7,2025-03-03,84
STUDY001,VS,STUDY001-SUBJ0004,35,HR,Heart Rate,69,beats/min,69,69.0,beats/min,,WEEK 12,7,2025-03-03,84
STUDY001,VS,STUDY001-SUBJ0004,36,HEIGHT,Height,167.2,cm,167.2,167.2,cm,,WEEK 16,8,2025-03-31,112
STUDY001,VS,STUDY001-SUBJ0004,37,WEIGHT,Weight,111.3,kg,111.3,111.3,kg,,WEEK 16,8,2025-03-31,112
STUDY001,VS,STUDY001-SUBJ0004,38,TEMP,Temperature,36.9,C,36.9,36.9,C,,WEEK 16,8,2025-03-31,112
STUDY001,VS,STUDY001-SUBJ0004,39,BP,Blood Pressure,122/85,mmHg,122/85,,mmHg,,WEEK 16,8,2025-03-31,112
STUDY001,VS,STUDY001-SUBJ0004,40,HR,Heart Rate,69,beats/min,69,69.0,beats/min,,WEEK 16,8,2025-03-31,112
STUDY001,VS,STUDY001-SUBJ0004,41,HEIGHT,Height,167.0,cm,167.0,167.0,cm,,END OF TREATMENT,9,2025-04-28,140
STUDY001,VS,STUDY001-SUBJ0004,42,WEIGHT,Weight,110.6,kg,110.6,110.6,kg,,END OF TREATMENT,9,2025-04-28,140
STUDY001,VS,STUDY001-SUBJ0004,43,TEMP,Temperature,36.9,C,36.9,36.9,C,,END OF TREATMENT,9,2025-04-28,140
STUDY001,VS,STUDY001-SUBJ0004,44,BP,Blood Pressure,124/83,mmHg,124/83,,mmHg,,END OF TREATMENT,9,2025-04-28,140
STUDY001,VS,STUDY001-SUBJ0004,45,HR,Heart Rate,64,beats/min,64,64.0,beats/min,,END OF TREATMENT,9,2025-04-28,140
STUDY001,VS,STUDY001-SUBJ0005,1,HEIGHT,Height,163.8,cm,163.8,163.8,cm,,SCREENING,1,2024-12-04,-14
STUDY001,VS,STUDY001-SUBJ0005,2,WEIGHT,Weight,63.4,kg,63.4,63.4,kg,,SCREENING,1,2024-12-04,-14
STUDY001,VS,STUDY001-SUBJ0005,3,TEMP,Temperature,37.0,C,37.0,37.0,C,,SCREENING,1,2024-12-04,-14
STUDY001,VS,STUDY001-SUBJ0005,4,BP,Blood Pressure,134/77,mmHg,134/77,,mmHg,,SCREENING,1,2024-12-04,-14
STUDY001,VS,STUDY001-SUBJ0005,5,HR,Heart Rate,92,beats/min,92,92.0,beats/min,,SCREENING,1,2024-12-04,-14
STUDY001,VS,STUDY001-SUBJ0005,6,HEIGHT,Height,164.0,cm,164.0,164.0,cm,Y,BASELINE,2,2024-12-18,1
STUDY001,VS,STUDY001-SUBJ0005,7,WEIGHT,Weight,63.6,kg,63.6,63.6,kg,Y,BASELINE,2,2024-12-18,1
STUDY001,VS,STUDY001-SUBJ0005,8,TEMP,Temperature,37.0,C,37.0,37.0,C,Y,BASELINE,2,2024-12-18,1
STUDY001,VS,STUDY001-SUBJ0005,9,BP,Blood Pressure,136/78,mmHg,136/78,,mmHg,Y,BASELINE,2,2024-12-18,1
STUDY001,VS,STUDY001-SUBJ0005,10,HR,Heart Rate,91,beats/min,91,91.0,beats/min,Y,BASELINE,2,2024-12-18,1
STUDY001,VS,STUDY001-SUBJ0005,11,HEIGHT,Height,163.8,cm,163.8,163.8,cm,,WEEK 1,3,2024-12-24,7
STUDY001,VS,STUDY001-SUBJ0005,12,WEIGHT,Weight,62.7,kg,62.7,62.7,kg,,WEEK 1,3,2024-12-24,7
STUDY001,VS,STUDY001-SUBJ0005,13,TEMP,Temperature,37.1,C,37.1,37.1,C,,WEEK 1,3,2024-12-24,7
STUDY001,VS,STUDY001-SUBJ0005,14,BP,Blood Pressure,138/80,mmHg,138/80,,mmHg,,WEEK 1,3,2024-12-24,7
STUDY001,VS,STUDY001-SUBJ0005,15,HR,Heart Rate,93,beats/min,93,93.0,beats/min,,WEEK 1,3,2024-12-24,7
STUDY001,VS,STUDY001-SUBJ0005,16,HEIGHT,Height,163.7,cm,163.7,163.7,cm,,WEEK 2,4,2024-12-31,14
STUDY001,VS,STUDY001-SUBJ0005,17,WEIGHT,Weight,62.6,kg,62.6,62.6,kg,,WEEK 2,4,2024-12-31,14
STUDY001,VS,STUDY001-SUBJ0005,18,TEMP,Temperature,37.2,C,37.2,37.2,C,,WEEK 2,4,2024-12-31,14
STUDY001,VS,STUDY001-SUBJ0005,19,BP,Blood Pressure,130/81,mmHg,130/81,,mmHg,,WEEK 2,4,2024-12-31,14
STUDY001,VS,STUDY001-SUBJ0005,20,HR,Heart Rate,88,beats/min,88,88.0,beats/min,,WEEK 2,4,2024-12-31,14
STUDY001,VS,STUDY001-SUBJ0005,21,HEIGHT,Height,163.8,cm,163.8,163.8,cm,,WEEK 4,5,2025-01-14,28
STUDY001,VS,STUDY001-SUBJ0005,22,WEIGHT,Weight,63.3,kg,63.3,63.3,kg,,WEEK 4,5,2025-01-14,28
STUDY001,VS,STUDY001-SUBJ0005,23,TEMP,Temperature,37.2,C,37.2,37.2,C,,WEEK 4,5,2025-01-14,28
STUDY001,VS,STUDY001-SUBJ0005,24,BP,Blood Pressure,129/85,mmHg,129/85,,mmHg,,WEEK 4,5,2025-01-14,28
STUDY001,VS,STUDY001-SUBJ0005,25,HR,Heart Rate,90,beats/min,90,90.0,beats/min,,WEEK 4,5,2025-01-14,28
STUDY001,VS,STUDY001-SUBJ0005,26,HEIGHT,Height,163.9,cm,163.9,163.9,cm,,WEEK 8,6,2025-02-11,56
STUDY001,VS,STUDY001-SUBJ0005,27,WEIGHT,Weight,63.0,kg,63.0,63.0,kg,,WEEK 8,6,2025-02-11,56
STUDY001,VS,STUDY001-SUBJ0005,28,TEMP,Temperature,36.9,C,36.9,36.9,C,,WEEK 8,6,2025-02-11,56
STUDY001,VS,STUDY001-SUBJ0005,29,BP,Blood Pressure,137/79,mmHg,137/79,,mmHg,,WEEK 8,6,2025-02-11,56
STUDY001,VS,STUDY001-SUBJ0005,30,HR,Heart Rate,85,beats/min,85,85.0,beats/min,,WEEK 8,6,2025-02-11,56
STUDY001,VS,STUDY001-SUBJ0005,31,HEIGHT,Height,163.9,cm,163.9,163.9,cm,,WEEK 12,7,2025-03-11,84
STUDY001,VS,STUDY001-SUBJ0005,32,WEIGHT,Weight,62.9,kg,62.9,62.9,kg,,WEEK 12,7,2025-03-11,84
STUDY001,VS,STUDY001-SUBJ0005,33,TEMP,Temperature,37.2,C,37.2,37.2,C,,WEEK 12,7,2025-03-11,84
STUDY001,VS,STUDY001-SUBJ0005,34,BP,Blood Pressure,137/85,mmHg,137/85,,mmHg,,WEEK 12,7,2025-03-11,84
STUDY001,VS,STUDY001-SUBJ0005,35,HR,Heart Rate,87,beats/min,87,87.0,beats/min,,WEEK 12,7,2025-03-11,84
STUDY001,VS,STUDY001-SUBJ0005,36,HEIGHT,Height,163.7,cm,163.7,163.7,cm,,WEEK 16,8,2025-04-08,112
STUDY001,VS,STUDY001-SUBJ0005,37,WEIGHT,Weight,62.4,kg,62.4,62.4,kg,,WEEK 16,8,2025-04-08,112
STUDY001,VS,STUDY001-SUBJ0005,38,TEMP,Temperature,37.2,C,37.2,37.2,C,,WEEK 16,8,2025-04-08,112
STUDY001,VS,STUDY001-SUBJ0005,39,BP,Blood Pressure,130/83,mmHg,130/83,,mmHg,,WEEK 16,8,2025-04-08,112
STUDY001,VS,STUDY001-SUBJ0005,40,HR,Heart Rate,90,beats/min,90,90.0,beats/min,,WEEK 16,8,2025-04-08,112
STUDY001,VS,STUDY001-SUBJ0005,41,HEIGHT,Height,163.8,cm,163.8,163.8,cm,,END OF TREATMENT,9,2025-05-06,140
STUDY001,VS,STUDY001-SUBJ0005,42,WEIGHT,Weight,62.6,kg,62.6,62.6,kg,,END OF TREATMENT,9,2025-05-06,140
STUDY001,VS,STUDY001-SUBJ0005,43,TEMP,Temperature,36.9,C,36.9,36.9,C,,END OF TREATMENT,9,2025-05-06,140
STUDY001,VS,STUDY001-SUBJ0005,44,BP,Blood Pressure,136/86,mmHg,136/86,,mmHg,,END OF TREATMENT,9,2025-05-06,140
STUDY001,VS,STUDY001-SUBJ0005,45,HR,Heart Rate,84,beats/min,84,84.0,beats/min,,END OF TREATMENT,9,2025-05-06,140
STUDY001,VS,STUDY001-SUBJ0006,1,HEIGHT,Height,159.9,cm,159.9,159.9,cm,,SCREENING,1,2025-01-06,-14
STUDY001,VS,STUDY001-SUBJ0006,2,WEIGHT,Weight,74.8,kg,74.8,74.8,kg,,SCREENING,1,2025-01-06,-14
STUDY001,VS,STUDY001-SUBJ0006,3,TEMP,Temperature,36.4,C,36.4,36.4,C,,SCREENING,1,2025-01-06,-14
STUDY001,VS,STUDY001-SUBJ0006,4,BP,Blood Pressure,112/79,mmHg,112/79,,mmHg,,SCREENING,1,2025-01-06,-14
STUDY001,VS,STUDY001-SUBJ0006,5,HR,Heart Rate,63,beats/min,63,63.0,beats/min,,SCREENING,1,2025-01-06,-14
STUDY001,VS,STUDY001-SUBJ0006,6,HEIGHT,Height,160.0,cm,160.0,160.0,cm,Y,BASELINE,2,2025-01-20,1
STUDY001,VS,STUDY001-SUBJ0006,7,WEIGHT,Weight,74.6,kg,74.6,74.6,kg,Y,BASELINE,2,2025-01-20,1
STUDY001,VS,STUDY001-SUBJ0006,8,TEMP,Temperature,36.3,C,36.3,36.3,C,Y,BASELINE,2,2025-01-20,1
STUDY001,VS,STUDY001-SUBJ0006,9,BP,Blood Pressure,109/82,mmHg,109/82,,mmHg,Y,BASELINE,2,2025-01-20,1
STUDY001,VS,STUDY001-SUBJ0006,10,HR,Heart Rate,67,beats/min,67,67.0,beats/min,Y,BASELINE,2,2025-01-20,1
STUDY001,VS,STUDY001-SUBJ0006,11,HEIGHT,Height,159.9,cm,159.9,159.9,cm,,WEEK 1,3,2025-01-26,7
STUDY001,VS,STUDY001-SUBJ0006,12,WEIGHT,Weight,75.0,kg,75.0,75.0,kg,,WEEK 1,3,2025-01-26,7
STUDY001,VS,STUDY001-SUBJ0006,13,TEMP,Temperature,36.3,C,36.3,36.3,C,,WEEK 1,3,2025-01-26,7
STUDY001,VS,STUDY001-SUBJ0006,14,BP,Blood Pressure,111/85,mmHg,111/85,,mmHg,,WEEK 1,3,2025-01-26,7
STUDY001,VS,STUDY001-SUBJ0006,15,HR,Heart Rate,70,beats/min,70,70.0,beats/min,,WEEK 1,3,2025-01-26,7
STUDY001,VS,STUDY001-SUBJ0006,16,HEIGHT,Height,160.1,cm,160.1,160.1,cm,,WEEK 2,4,2025-02-02,14
STUDY001,VS,STUDY001-SUBJ0006,17,WEIGHT,Weight,74.0,kg,74.0,74.0,kg,,WEEK 2,4,2025-02-02,14
STUDY001,VS,STUDY001-SUBJ0006,18,TEMP,Temperature,36.6,C,36.6,36.6,C,,WEEK 2,4,2025-02-02,14
STUDY001,VS,STUDY001-SUBJ0006,19,BP,Blood Pressure,113/78,mmHg,113/78,,mmHg,,WEEK 2,4,2025-02-02,14
STUDY001,VS,STUDY001-SUBJ0006,20,HR,Heart Rate,72,beats/min,72,72.0,beats/min,,WEEK 2,4,2025-02-02,14
STUDY001,VS,STUDY001-SUBJ0006,21,HEIGHT,Height,159.7,cm,159.7,159.7,cm,,WEEK 4,5,2025-02-16,28
STUDY001,VS,STUDY001-SUBJ0006,22,WEIGHT,Weight,73.8,kg,73.8,73.8,kg,,WEEK 4,5,2025-02-16,28
STUDY001,VS,STUDY001-SUBJ0006,23,TEMP,Temperature,36.2,C,36.2,36.2,C,,WEEK 4,5,2025-02-16,28
STUDY001,VS,STUDY001-SUBJ0006,24,BP,Blood Pressure,109/81,mmHg,109/81,,mmHg,,WEEK 4,5,2025-02-16,28
STUDY001,VS,STUDY001-SUBJ0006,25,HR,Heart Rate,65,beats/min,65,65.0,beats/min,,WEEK 4,5,2025-02-16,28
STUDY001,VS,STUDY001-SUBJ0006,26,HEIGHT,Height,160.0,cm,160.0,160.0,cm,,WEEK 8,6,2025-03-16,56
STUDY001,VS,STUDY001-SUBJ0006,27,WEIGHT,Weight,74.9,kg,74.9,74.9,kg,,WEEK 8,6,2025-03-16,56
STUDY001,VS,STUDY001-SUBJ0006,28,TEMP,Temperature,36.6,C,36.6,36.6,C,,WEEK 8,6,2025-03-16,56
STUDY001,VS,STUDY001-SUBJ0006,29,BP,Blood Pressure,114/83,mmHg,114/83,,mmHg,,WEEK 8,6,2025-03-16,56
STUDY001,VS,STUDY001-SUBJ0006,30,HR,Heart Rate,63,beats/min,63,63.0,beats/min,,WEEK 8,6,2025-03-16,56
STUDY001,VS,STUDY001-SUBJ0006,31,HEIGHT,Height,160.0,cm,160.0,160.0,cm,,WEEK 12,7,2025-04-13,84
STUDY001,VS,STUDY001-SUBJ0006,32,WEIGHT,Weight,74.6,kg,74.6,74.6,kg,,WEEK 12,7,2025-04-13,84
STUDY001,VS,STUDY001-SUBJ0006,33,TEMP,Temperature,36.3,C,36.3,36.3,C,,WEEK 12,7,2025-04-13,84
STUDY001,VS,STUDY001-SUBJ0006,34,BP,Blood Pressure,111/85,mmHg,111/85,,mmHg,,WEEK 12,7,2025-04-13,84
STUDY001,VS,STUDY001-SUBJ0006,35,HR,Heart Rate,66,beats/min,66,66.0,beats/min,,WEEK 12,7,2025-04-13,84
STUDY001,VS,STUDY001-SUBJ0006,36,HEIGHT,Height,159.7,cm,159.7,159.7,cm,,WEEK 16,8,2025-05-11,112
STUDY001,VS,STUDY001-SUBJ0006,37,WEIGHT,Weight,74.9,kg,74.9,74.9,kg,,WEEK 16,8,2025-05-11,112
STUDY001,VS,STUDY001-SUBJ0006,38,TEMP,Temperature,36.6,C,36.6,36.6,C,,WEEK 16,8,2025-05-11,112
STUDY001,VS,STUDY001-SUBJ0006,39,BP,Blood Pressure,113/79,mmHg,113/79,,mmHg,,WEEK 16,8,2025-05-11,112
STUDY001,VS,STUDY001-SUBJ0006,40,HR,Heart Rate,65,beats/min,65,65.0,beats/min,,WEEK 16,8,2025-05-11,112
STUDY001,VS,STUDY001-SUBJ0006,41,HEIGHT,Height,160.0,cm,160.0,160.0,cm,,END OF TREATMENT,9,2025-06-08,140
STUDY001,VS,STUDY001-SUBJ0006,42,WEIGHT,Weight,74.3,kg,74.3,74.3,kg,,END OF TREATMENT,9,2025-06-08,140
STUDY001,VS,STUDY001-SUBJ0006,43,TEMP,Temperature,36.2,C,36.2,36.2,C,,END OF TREATMENT,9,2025-06-08,140
STUDY001,VS,STUDY001-SUBJ0006,44,BP,Blood Pressure,114/83,mmHg,114/83,,mmHg,,END OF TREATMENT,9,2025-06-08,140
STUDY001,VS,STUDY001-SUBJ0006,45,HR,Heart Rate,66,beats/min,66,66.0,beats/min,,END OF TREATMENT,9,2025-06-08,140
STUDY001,VS,STUDY001-SUBJ0007,1,HEIGHT,Height,159.0,cm,159.0,159.0,cm,,SCREENING,1,2025-05-03,-14
STUDY001,VS,STUDY001-SUBJ0007,2,WEIGHT,Weight,89.1,kg,89.1,89.1,kg,,SCREENING,1,2025-05-03,-14
STUDY001,VS,STUDY001-SUBJ0007,3,TEMP,Temperature,36.6,C,36.6,36.6,C,,SCREENING,1,2025-05-03,-14
STUDY001,VS,STUDY001-SUBJ0007,4,BP,Blood Pressure,127/84,mmHg,127/84,,mmHg,,SCREENING,1,2025-05-03,-14
STUDY001,VS,STUDY001-SUBJ0007,5,HR,Heart Rate,82,beats/min,82,82.0,beats/min,,SCREENING,1,2025-05-03,-14
STUDY001,VS,STUDY001-SUBJ0007,6,HEIGHT,Height,158.9,cm,158.9,158.9,cm,Y,BASELINE,2,2025-05-17,1
STUDY001,VS,STUDY001-SUBJ0007,7,WEIGHT,Weight,89.1,kg,89.1,89.1,kg,Y,BASELINE,2,2025-05-17,1
STUDY001,VS,STUDY001-SUBJ0007,8,TEMP,Temperature,36.8,C,36.8,36.8,C,Y,BASELINE,2,2025-05-17,1
STUDY001,VS,STUDY001-SUBJ0007,9,BP,Blood Pressure,126/86,mmHg,126/86,,mmHg,Y,BASELINE,2,2025-05-17,1
STUDY001,VS,STUDY001-SUBJ0007,10,HR,Heart Rate,82,beats/min,82,82.0,beats/min,Y,BASELINE,2,2025-05-17,1
STUDY001,VS,STUDY001-SUBJ0007,11,HEIGHT,Height,158.8,cm,158.8,158.8,cm,,WEEK 1,3,2025-05-23,7
STUDY001,VS,STUDY001-SUBJ0007,12,WEIGHT,Weight,89.2,kg,89.2,89.2,kg,,WEEK 1,3,2025-05-23,7
STUDY001,VS,STUDY001-SUBJ0007,13,TEMP,Temperature,36.8,C,36.8,36.8,C,,WEEK 1,3,2025-05-23,7
STUDY001,VS,STUDY001-SUBJ0007,14,BP,Blood Pressure,126/88,mmHg,126/88,,mmHg,,WEEK 1,3,2025-05-23,7
STUDY001,VS,STUDY001-SUBJ0007,15,HR,Heart Rate,81,beats/min,81,81.0,beats/min,,WEEK 1,3,2025-05-23,7
STUDY001,VS,STUDY001-SUBJ0007,16,HEIGHT,Height,159.1,cm,159.1,159.1,cm,,WEEK 2,4,2025-05-30,14
STUDY001,VS,STUDY001-SUBJ0007,17,WEIGHT,Weight,88.2,kg,88.2,88.2,kg,,WEEK 2,4,2025-05-30,14
STUDY001,VS,STUDY001-SUBJ0007,18,TEMP,Temperature,36.5,C,36.5,36.5,C,,WEEK 2,4,2025-05-30,14
STUDY001,VS,STUDY001-SUBJ0007,19,BP,Blood Pressure,119/81,mmHg,119/81,,mmHg,,WEEK 2,4,2025-05-30,14
STUDY001,VS,STUDY001-SUBJ0007,20,HR,Heart Rate,74,beats/min,74,74.0,beats/min,,WEEK 2,4,2025-05-30,14
STUDY001,VS,STUDY001-SUBJ0007,21,HEIGHT,Height,159.0,cm,159.0,159.0,cm,,WEEK 4,5,2025-06-13,28
STUDY001,VS,STUDY001-SUBJ0007,22,WEIGHT,Weight,87.8,kg,87.8,87.8,kg,,WEEK 4,5,2025-06-13,28
STUDY001,VS,STUDY001-SUBJ0007,23,TEMP,Temperature,36.6,C,36.6,36.6,C,,WEEK 4,5,2025-06-13,28
STUDY001,VS,STUDY001-SUBJ0007,24,BP,Blood Pressure,124/89,mmHg,124/89,,mmHg,,WEEK 4,5,2025-06-13,28
STUDY001,VS,STUDY001-SUBJ0007,25,HR,Heart Rate,77,beats/min,77,77.0,beats/min,,WEEK 4,5,2025-06-13,28
STUDY001,VS,STUDY001-SUBJ0007,26,HEIGHT,Height,159.2,cm,159.2,159.2,cm,,WEEK 8,6,2025-07-11,56
STUDY001,VS,STUDY001-SUBJ0007,27,WEIGHT,Weight,88.4,kg,88.4,88.4,kg,,WEEK 8,6,2025-07-11,56
STUDY001,VS,STUDY001-SUBJ0007,28,TEMP,Temperature,36.6,C,36.6,36.6,C,,WEEK 8,6,2025-07-11,56
STUDY001,VS,STUDY001-SUBJ0007,29,BP,Blood Pressure,121/84,mmHg,121/84,,mmHg,,WEEK 8,6,2025-07-11,56
STUDY001,VS,STUDY001-SUBJ0007,30,HR,Heart Rate,74,beats/min,74,74.0,beats/min,,WEEK 8,6,2025-07-11,56
STUDY001,VS,STUDY001-SUBJ0007,31,HEIGHT,Height,159.0,cm,159.0,159.0,cm,,WEEK 12,7,2025-08-08,84
STUDY001,VS,STUDY001-SUBJ0007,32,WEIGHT,Weight,88.3,kg,88.3,88.3,kg,,WEEK 12,7,2025-08-08,84
STUDY001,VS,STUDY001-SUBJ0007,33,TEMP,Temperature,36.7,C,36.7,36.7,C,,WEEK 12,7,2025-08-08,84
STUDY001,VS,STUDY001-SUBJ0007,34,BP,Blood Pressure,127/86,mmHg,127/86,,mmHg,,WEEK 12,7,2025-08-08,84
STUDY001,VS,STUDY001-SUBJ0007,35,HR,Heart Rate,76,beats/min,76,76.0,beats/min,,WEEK 12,7,2025-08-08,84
STUDY001,VS,STUDY001-SUBJ0007,36,HEIGHT,Height,159.0,cm,159.0,159.0,cm,,WEEK 16,8,2025-09-05,112
STUDY001,VS,STUDY001-SUBJ0007,37,WEIGHT,Weight,88.0,kg,88.0,88.0,kg,,WEEK 16,8,2025-09-05,112
STUDY001,VS,STUDY001-SUBJ0007,38,TEMP,Temperature,36.9,C,36.9,36.9,C,,WEEK 16,8,2025-09-05,112
STUDY001,VS,STUDY001-SUBJ0007,39,BP,Blood Pressure,126/84,mmHg,126/84,,mmHg,,WEEK 16,8,2025-09-05,112
STUDY001,VS,STUDY001-SUBJ0007,40,HR,Heart Rate,75,beats/min,75,75.0,beats/min,,WEEK 16,8,2025-09-05,112
STUDY001,VS,STUDY001-SUBJ0007,41,HEIGHT,Height,159.2,cm,159.2,159.2,cm,,END OF TREATMENT,9,2025-10-03,140
STUDY001,VS,STUDY001-SUBJ0007,42,WEIGHT,Weight,88.1,kg,88.1,88.1,kg,,END OF TREATMENT,9,2025-10-03,140
STUDY001,VS,STUDY001-SUBJ0007,43,TEMP,Temperature,36.5,C,36.5,36.5,C,,END OF TREATMENT,9,2025-10-03,140
STUDY001,VS,STUDY001-SUBJ0007,44,BP,Blood Pressure,126/87,mmHg,126/87,,mmHg,,END OF TREATMENT,9,2025-10-03,140
STUDY001,VS,STUDY001-SUBJ0007,45,HR,Heart Rate,78,beats/min,78,78.0,beats/min,,END OF TREATMENT,9,2025-10-03,140
STUDY001,VS,STUDY001-SUBJ0008,1,HEIGHT,Height,158.1,cm,158.1,158.1,cm,,SCREENING,1,2025-05-16,-14
STUDY001,VS,STUDY001-SUBJ0008,2,WEIGHT,Weight,107.5,kg,107.5,107.5,kg,,SCREENING,1,2025-05-16,-14
STUDY001,VS,STUDY001-SUBJ0008,3,TEMP,Temperature,36.3,C,36.3,36.3,C,,SCREENING,1,2025-05-16,-14
STUDY001,VS,STUDY001-SUBJ0008,4,BP,Blood Pressure,129/87,mmHg,129/87,,mmHg,,SCREENING,1,2025-05-16,-14
STUDY001,VS,STUDY001-SUBJ0008,5,HR,Heart Rate,81,beats/min,81,81.0,beats/min,,SCREENING,1,2025-05-16,-14
STUDY001,VS,STUDY001-SUBJ0008,6,HEIGHT,Height,158.2,cm,158.2,158.2,cm,Y,BASELINE,2,2025-05-30,1
STUDY001,VS,STUDY001-SUBJ0008,7,WEIGHT,Weight,107.1,kg,107.1,107.1,kg,Y,BASELINE,2,2025-05-30,1
STUDY001,VS,STUDY001-SUBJ0008,8,TEMP,Temperature,35.9,C,35.9,35.9,C,Y,BASELINE,2,2025-05-30,1
STUDY001,VS,STUDY001-SUBJ0008,9,BP,Blood Pressure,129/79,mmHg,129/79,,mmHg,Y,BASELINE,2,2025-05-30,1
STUDY001,VS,STUDY001-SUBJ0008,10,HR,Heart Rate,74,beats/min,74,74.0,beats/min,Y,BASELINE,2,2025-05-30,1
STUDY001,VS,STUDY001-SUBJ0008,11,HEIGHT,Height,157.9,cm,157.9,157.9,cm,,WEEK 1,3,2025-06-05,7
STUDY001,VS,STUDY001-SUBJ0008,12,WEIGHT,Weight,107.9,kg,107.9,107.9,kg,,WEEK 1,3,2025-06-05,7
STUDY001,VS,STUDY001-SUBJ0008,13,TEMP,Temperature,36.2,C,36.2,36.2,C,,WEEK 1,3,2025-06-05,7
STUDY001,VS,STUDY001-SUBJ0008,14,BP,Blood Pressure,127/83,mmHg,127/83,,mmHg,,WEEK 1,3,2025-06-05,7
STUDY001,VS,STUDY001-SUBJ0008,15,HR,Heart Rate,78,beats/min,78,78.0,beats/min,,WEEK 1,3,2025-06-05,7
STUDY001,VS,STUDY001-SUBJ0008,16,HEIGHT,Height,157.9,cm,157.9,157.9,cm,,WEEK 2,4,2025-06-12,14
STUDY001,VS,STUDY001-SUBJ0008,17,WEIGHT,Weight,108.4,kg,108.4,108.4,kg,,WEEK 2,4,2025-06-12,14
STUDY001,VS,STUDY001-SUBJ0008,18,TEMP,Temperature,36.2,C,36.2,36.2,C,,WEEK 2,4,2025-06-12,14
STUDY001,VS,STUDY001-SUBJ0008,19,BP,Blood Pressure,129/82,mmHg,129/82,,mmHg,,WEEK 2,4,2025-06-12,14
STUDY001,VS,STUDY001-SUBJ0008,20,HR,Heart Rate,77,beats/min,77,77.0,beats/min,,WEEK 2,4,2025-06-12,14
STUDY001,VS,STUDY001-SUBJ0008,21,HEIGHT,Height,158.0,cm,158.0,158.0,cm,,WEEK 4,5,2025-06-26,28
STUDY001,VS,STUDY001-SUBJ0008,22,WEIGHT,Weight,108.2,kg,108.2,108.2,kg,,WEEK 4,5,2025-06-26,28
STUDY001,VS,STUDY001-SUBJ0008,23,TEMP,Temperature,36.3,C,36.3,36.3,C,,WEEK 4,5,2025-06-26,28
STUDY001,VS,STUDY001-SUBJ0008,24,BP,Blood Pressure,126/77,mmHg,126/77,,mmHg,,WEEK 4,5,2025-06-26,28
STUDY001,VS,STUDY001-SUBJ0008,25,HR,Heart Rate,74,beats/min,74,74.0,beats/min,,WEEK 4,5,2025-06-26,28
STUDY001,VS,STUDY001-SUBJ0008,26,HEIGHT,Height,158.2,cm,158.2,158.2,cm,,WEEK 8,6,2025-07-24,56
STUDY001,VS,STUDY001-SUBJ0008,27,WEIGHT,Weight,107.0,kg,107.0,107.0,kg,,WEEK 8,6,2025-07-24,56
STUDY001,VS,STUDY001-SUBJ0008,28,TEMP,Temperature,36.2,C,36.2,36.2,C,,WEEK 8,6,2025-07-24,56
STUDY001,VS,STUDY001-SUBJ0008,29,BP,Blood Pressure,129/84,mmHg,129/84,,mmHg,,WEEK 8,6,2025-07-24,56
STUDY001,VS,STUDY001-SUBJ0008,30,HR,Heart Rate,78,beats/min,78,78.0,beats/min,,WEEK 8,6,2025-07-24,56
STUDY001,VS,STUDY001-SUBJ0008,31,HEIGHT,Height,158.1,cm,158.1,158.1,cm,,WEEK 12,7,2025-08-21,84
STUDY001,VS,STUDY001-SUBJ0008,32,WEIGHT,Weight,108.8,kg,108.8,108.8,kg,,WEEK 12,7,2025-08-21,84
STUDY001,VS,STUDY001-SUBJ0008,33,TEMP,Temperature,35.9,C,35.9,35.9,C,,WEEK 12,7,2025-08-21,84
STUDY001,VS,STUDY001-SUBJ0008,34,BP,Blood Pressure,133/79,mmHg,133/79,,mmHg,,WEEK 12,7,2025-08-21,84
STUDY001,VS,STUDY001-SUBJ0008,35,HR,Heart Rate,78,beats/min,78,78.0,beats/min,,WEEK 12,7,2025-08-21,84
STUDY001,VS,STUDY001-SUBJ0008,36,HEIGHT,Height,158.0,cm,158.0,158.0,cm,,WEEK 16,8,2025-09-18,112
STUDY001,VS,STUDY001-SUBJ0008,37,WEIGHT,Weight,108.6,kg,108.6,108.6,kg,,WEEK 16,8,2025-09-18,112
STUDY001,VS,STUDY001-SUBJ0008,38,TEMP,Temperature,35.8,C,35.8,35.8,C,,WEEK 16,8,2025-09-18,112
STUDY001,VS,STUDY001-SUBJ0008,39,BP,Blood Pressure,135/83,mmHg,135/83,,mmHg,,WEEK 16,8,2025-09-18,112
STUDY001,VS,STUDY001-SUBJ0008,40,HR,Heart Rate,74,beats/min,74,74.0,beats/min,,WEEK 16,8,2025-09-18,112
STUDY001,VS,STUDY001-SUBJ0008,41,HEIGHT,Height,157.9,cm,157.9,157.9,cm,,END OF TREATMENT,9,2025-10-16,140
STUDY001,VS,STUDY001-SUBJ0008,42,WEIGHT,Weight,107.6,kg,107.6,107.6,kg,,END OF TREATMENT,9,2025-10-16,140
STUDY001,VS,STUDY001-SUBJ0008,43,TEMP,Temperature,36.2,C,36.2,36.2,C,,END OF TREATMENT,9,2025-10-16,140
STUDY001,VS,STUDY001-SUBJ0008,44,BP,Blood Pressure,126/81,mmHg,126/81,,mmHg,,END OF TREATMENT,9,2025-10-16,140
STUDY001,VS,STUDY001-SUBJ0008,45,HR,Heart Rate,77,beats/min,77,77.0,beats/min,,END OF TREATMENT,9,2025-10-16,140
STUDY001,VS,STUDY001-SUBJ0009,1,HEIGHT,Height,176.6,cm,176.6,176.6,cm,,SCREENING,1,2024-12-12,-14
STUDY001,VS,STUDY001-SUBJ0009,2,WEIGHT,Weight,70.5,kg,70.5,70.5,kg,,SCREENING,1,2024-12-12,-14
STUDY001,VS,STUDY001-SUBJ0009,3,TEMP,Temperature,36.9,C,36.9,36.9,C,,SCREENING,1,2024-12-12,-14
STUDY001,VS,STUDY001-SUBJ0009,4,BP,Blood Pressure,131/69,mmHg,131/69,,mmHg,,SCREENING,1,2024-12-12,-14
STUDY001,VS,STUDY001-SUBJ0009,5,HR,Heart Rate,56,beats/min,56,56.0,beats/min,,SCREENING,1,2024-12-12,-14
STUDY001,VS,STUDY001-SUBJ0009,6,HEIGHT,Height,176.8,cm,176.8,176.8,cm,Y,BASELINE,2,2024-12-26,1
STUDY001,VS,STUDY001-SUBJ0009,7,WEIGHT,Weight,71.1,kg,71.1,71.1,kg,Y,BASELINE,2,2024-12-26,1
STUDY001,VS,STUDY001-SUBJ0009,8,TEMP,Temperature,36.8,C,36.8,36.8,C,Y,BASELINE,2,2024-12-26,1
STUDY001,VS,STUDY001-SUBJ0009,9,BP,Blood Pressure,131/71,mmHg,131/71,,mmHg,Y,BASELINE,2,2024-12-26,1
STUDY001,VS,STUDY001-SUBJ0009,10,HR,Heart Rate,59,beats/min,59,59.0,beats/min,Y,BASELINE,2,2024-12-26,1
STUDY001,VS,STUDY001-SUBJ0009,11,HEIGHT,Height,176.8,cm,176.8,176.8,cm,,WEEK 1,3,2025-01-01,7
STUDY001,VS,STUDY001-SUBJ0009,12,WEIGHT,Weight,70.1,kg,70.1,70.1,kg,,WEEK 1,3,2025-01-01,7
STUDY001,VS,STUDY001-SUBJ0009,13,TEMP,Temperature,36.5,C,36.5,36.5,C,,WEEK 1,3,2025-01-01,7
STUDY001,VS,STUDY001-SUBJ0009,14,BP,Blood Pressure,131/74,mmHg,131/74,,mmHg,,WEEK 1,3,2025-01-01,7
STUDY001,VS,STUDY001-SUBJ0009,15,HR,Heart Rate,61,beats/min,61,61.0,beats/min,,WEEK 1,3,2025-01-01,7
STUDY001,VS,STUDY001-SUBJ0009,16,HEIGHT,Height,176.6,cm,176.6,176.6,cm,,WEEK 2,4,2025-01-08,14
STUDY001,VS,STUDY001-SUBJ0009,17,WEIGHT,Weight,70.1,kg,70.1,70.1,kg,,WEEK 2,4,2025-01-08,14
STUDY001,VS,STUDY001-SUBJ0009,18,TEMP,Temperature,36.8,C,36.8,36.8,C,,WEEK 2,4,2025-01-08,14
STUDY001,VS,STUDY001-SUBJ0009,19,BP,Blood Pressure,129/71,mmHg,129/71,,mmHg,,WEEK 2,4,2025-01-08,14
STUDY001,VS,STUDY001-SUBJ0009,20,HR,Heart Rate,60,beats/min,60,60.0,beats/min,,WEEK 2,4,2025-01-08,14
STUDY001,VS,STUDY001-SUBJ0009,21,HEIGHT,Height,176.6,cm,176.6,176.6,cm,,WEEK 4,5,2025-01-22,28
STUDY001,VS,STUDY001-SUBJ0009,22,WEIGHT,Weight,70.7,kg,70.7,70.7,kg,,WEEK 4,5,2025-01-22,28
STUDY001,VS,STUDY001-SUBJ0009,23,TEMP,Temperature,36.7,C,36.7,36.7,C,,WEEK 4,5,2025-01-22,28
STUDY001,VS,STUDY001-SUBJ0009,24,BP,Blood Pressure,127/67,mmHg,127/67,,mmHg,,WEEK 4,5,2025-01-22,28
STUDY001,VS,STUDY001-SUBJ0009,25,HR,Heart Rate,59,beats/min,59,59.0,beats/min,,WEEK 4,5,2025-01-22,28
STUDY001,VS,STUDY001-SUBJ0009,26,HEIGHT,Height,176.5,cm,176.5,176.5,cm,,WEEK 8,6,2025-02-19,56
STUDY001,VS,STUDY001-SUBJ0009,27,WEIGHT,Weight,69.9,kg,69.9,69.9,kg,,WEEK 8,6,2025-02-19,56
STUDY001,VS,STUDY001-SUBJ0009,28,TEMP,Temperature,36.9,C,36.9,36.9,C,,WEEK 8,6,2025-02-19,56
STUDY001,VS,STUDY001-SUBJ0009,29,BP,Blood Pressure,127/69,mmHg,127/69,,mmHg,,WEEK 8,6,2025-02-19,56
STUDY001,VS,STUDY001-SUBJ0009,30,HR,Heart Rate,58,beats/min,58,58.0,beats/min,,WEEK 8,6,2025-02-19,56
STUDY001,VS,STUDY001-SUBJ0009,31,HEIGHT,Height,176.5,cm,176.5,176.5,cm,,WEEK 12,7,2025-03-19,84
STUDY001,VS,STUDY001-SUBJ0009,32,WEIGHT,Weight,71.6,kg,71.6,71.6,kg,,WEEK 12,7,2025-03-19,84
STUDY001,VS,STUDY001-SUBJ0009,33,TEMP,Temperature,36.4,C,36.4,36.4,C,,WEEK 12,7,2025-03-19,84
STUDY001,VS,STUDY001-SUBJ0009,34,BP,Blood Pressure,128/73,mmHg,128/73,,mmHg,,WEEK 12,7,2025-03-19,84
STUDY001,VS,STUDY001-SUBJ0009,35,HR,Heart Rate,56,beats/min,56,56.0,beats/min,,WEEK 12,7,2025-03-19,84
STUDY001,VS,STUDY001-SUBJ0009,36,HEIGHT,Height,176.4,cm,176.4,176.4,cm,,WEEK 16,8,2025-04-16,112
STUDY001,VS,STUDY001-SUBJ0009,37,WEIGHT,Weight,71.0,kg,71.0,71.0,kg,,WEEK 16,8,2025-04-16,112
STUDY001,VS,STUDY001-SUBJ0009,38,TEMP,Temperature,36.7,C,36.7,36.7,C,,WEEK 16,8,2025-04-16,112
STUDY001,VS,STUDY001-SUBJ0009,39,BP,Blood Pressure,128/75,mmHg,128/75,,mmHg,,WEEK 16,8,2025-04-16,112
STUDY001,VS,STUDY001-SUBJ0009,40,HR,Heart Rate,56,beats/min,56,56.0,beats/min,,WEEK 16,8,2025-04-16,112
STUDY001,VS,STUDY001-SUBJ0009,41,HEIGHT,Height,176.7,cm,176.7,176.7,cm,,END OF TREATMENT,9,2025-05-14,140
STUDY001,VS,STUDY001-SUBJ0009,42,WEIGHT,Weight,70.6,kg,70.6,70.6,kg,,END OF TREATMENT,9,2025-05-14,140
STUDY001,VS,STUDY001-SUBJ0009,43,TEMP,Temperature,36.8,C,36.8,36.8,C,,END OF TREATMENT,9,2025-05-14,140
STUDY001,VS,STUDY001-SUBJ0009,44,BP,Blood Pressure,126/75,mmHg,126/75,,mmHg,,END OF TREATMENT,9,2025-05-14,140
STUDY001,VS,STUDY001-SUBJ0009,45,HR,Heart Rate,65,beats/min,65,65.0,beats/min,,END OF TREATMENT,9,2025-05-14,140
STUDY001,VS,STUDY001-SUBJ0010,1,HEIGHT,Height,156.7,cm,156.7,156.7,cm,,SCREENING,1,2025-06-17,-14
STUDY001,VS,STUDY001-SUBJ0010,2,WEIGHT,Weight,74.8,kg,74.8,74.8,kg,,SCREENING,1,2025-06-17,-14
STUDY001,VS,STUDY001-SUBJ0010,3,TEMP,Temperature,36.5,C,36.5,36.5,C,,SCREENING,1,2025-06-17,-14
STUDY001,VS,STUDY001-SUBJ0010,4,BP,Blood Pressure,123/94,mmHg,123/94,,mmHg,,SCREENING,1,2025-06-17,-14
STUDY001,VS,STUDY001-SUBJ0010,5,HR,Heart Rate,81,beats/min,81,81.0,beats/min,,SCREENING,1,2025-06-17,-14
STUDY001,VS,STUDY001-SUBJ0010,6,HEIGHT,Height,156.8,cm,156.8,156.8,cm,Y,BASELINE,2,2025-07-01,1
STUDY001,VS,STUDY001-SUBJ0010,7,WEIGHT,Weight,75.7,kg,75.7,75.7,kg,Y,BASELINE,2,2025-07-01,1
STUDY001,VS,STUDY001-SUBJ0010,8,TEMP,Temperature,36.3,C,36.3,36.3,C,Y,BASELINE,2,2025-07-01,1
STUDY001,VS,STUDY001-SUBJ0010,9,BP,Blood Pressure,119/98,mmHg,119/98,,mmHg,Y,BASELINE,2,2025-07-01,1
STUDY001,VS,STUDY001-SUBJ0010,10,HR,Heart Rate,80,beats/min,80,80.0,beats/min,Y,BASELINE,2,2025-07-01,1
STUDY001,VS,STUDY001-SUBJ0010,11,HEIGHT,Height,156.7,cm,156.7,156.7,cm,,WEEK 1,3,2025-07-07,7
STUDY001,VS,STUDY001-SUBJ0010,12,WEIGHT,Weight,76.3,kg,76.3,76.3,kg,,WEEK 1,3,2025-07-07,7
STUDY001,VS,STUDY001-SUBJ0010,13,TEMP,Temperature,36.2,C,36.2,36.2,C,,WEEK 1,3,2025-07-07,7
STUDY001,VS,STUDY001-SUBJ0010,14,BP,Blood Pressure,116/95,mmHg,116/95,,mmHg,,WEEK 1,3,2025-07-07,7
STUDY001,VS,STUDY001-SUBJ0010,15,HR,Heart Rate,86,beats/min,86,86.0,beats/min,,WEEK 1,3,2025-07-07,7
STUDY001,VS,STUDY001-SUBJ0010,16,HEIGHT,Height,156.8,cm,156.8,156.8,cm,,WEEK 2,4,2025-07-14,14
STUDY001,VS,STUDY001-SUBJ0010,17,WEIGHT,Weight,74.5,kg,74.5,74.5,kg,,WEEK 2,4,2025-07-14,14
STUDY001,VS,STUDY001-SUBJ0010,18,TEMP,Temperature,36.6,C,36.6,36.6,C,,WEEK 2,4,2025-07-14,14
STUDY001,VS,STUDY001-SUBJ0010,19,BP,Blood Pressure,116/96,mmHg,116/96,,mmHg,,WEEK 2,4,2025-07-14,14
STUDY001,VS,STUDY001-SUBJ0010,20,HR,Heart Rate,79,beats/min,79,79.0,beats/min,,WEEK 2,4,2025-07-14,14
STUDY001,VS,STUDY001-SUBJ0010,21,HEIGHT,Height,156.7,cm,156.7,156.7,cm,,WEEK 4,5,2025-07-28,28
STUDY001,VS,STUDY001-SUBJ0010,22,WEIGHT,Weight,76.0,kg,76.0,76.0,kg,,WEEK 4,5,2025-07-28,28
STUDY001,VS,STUDY001-SUBJ0010,23,TEMP,Temperature,36.5,C,36.5,36.5,C,,WEEK 4,5,2025-07-28,28
STUDY001,VS,STUDY001-SUBJ0010,24,BP,Blood Pressure,118/89,mmHg,118/89,,mmHg,,WEEK 4,5,2025-07-28,28
STUDY001,VS,STUDY001-SUBJ0010,25,HR,Heart Rate,86,beats/min,86,86.0,beats/min,,WEEK 4,5,2025-07-28,28
STUDY001,VS,STUDY001-SUBJ0010,26,HEIGHT,Height,156.8,cm,156.8,156.8,cm,,WEEK 8,6,2025-08-25,56
STUDY001,VS,STUDY001-SUBJ0010,27,WEIGHT,Weight,75.0,kg,75.0,75.0,kg,,WEEK 8,6,2025-08-25,56
STUDY001,VS,STUDY001-SUBJ0010,28,TEMP,Temperature,36.4,C,36.4,36.4,C,,WEEK 8,6,2025-08-25,56
STUDY001,VS,STUDY001-SUBJ0010,29,BP,Blood Pressure,121/96,mmHg,121/96,,mmHg,,WEEK 8,6,2025-08-25,56
STUDY001,VS,STUDY001-SUBJ0010,30,HR,Heart Rate,81,beats/min,81,81.0,beats/min,,WEEK 8,6,2025-08-25,56
STUDY001,VS,STUDY001-SUBJ0010,31,HEIGHT,Height,156.6,cm,156.6,156.6,cm,,WEEK 12,7,2025-09-22,84
STUDY001,VS,STUDY001-SUBJ0010,32,WEIGHT,Weight,75.9,kg,75.9,75.9,kg,,WEEK 12,7,2025-09-22,84
STUDY001,VS,STUDY001-SUBJ0010,33,TEMP,Temperature,36.3,C,36.3,36.3,C,,WEEK 12,7,2025-09-22,84
STUDY001,VS,STUDY001-SUBJ0010,34,BP,Blood Pressure,123/97,mmHg,123/97,,mmHg,,WEEK 12,7,2025-09-22,84
STUDY001,VS,STUDY001-SUBJ0010,35,HR,Heart Rate,84,beats/min,84,84.0,beats/min,,WEEK 12,7,2025-09-22,84
STUDY001,VS,STUDY001-SUBJ0010,36,HEIGHT,Height,156.8,cm,156.8,156.8,cm,,WEEK 16,8,2025-10-20,112
STUDY001,VS,STUDY001-SUBJ0010,37,WEIGHT,Weight,75.9,kg,75.9,75.9,kg,,WEEK 16,8,2025-10-20,112
STUDY001,VS,STUDY001-SUBJ0010,38,TEMP,Temperature,36.5,C,36.5,36.5,C,,WEEK 16,8,2025-10-20,112
STUDY001,VS,STUDY001-SUBJ0010,39,BP,Blood Pressure,123/97,mmHg,123/97,,mmHg,,WEEK 16,8,2025-10-20,112
STUDY001,VS,STUDY001-SUBJ0010,40,HR,Heart Rate,81,beats/min,81,81.0,beats/min,,WEEK 16,8,2025-10-20,112
STUDY001,VS,STUDY001-SUBJ0010,41,HEIGHT,Height,156.5,cm,156.5,156.5,cm,,END OF TREATMENT,9,2025-11-17,140
STUDY001,VS,STUDY001-SUBJ0010,42,WEIGHT,Weight,75.7,kg,75.7,75.7,kg,,END OF TREATMENT,9,2025-11-17,140
STUDY001,VS,STUDY001-SUBJ0010,43,TEMP,Temperature,36.3,C,36.3,36.3,C,,END OF TREATMENT,9,2025-11-17,140
STUDY001,VS,STUDY001-SUBJ0010,44,BP,Blood Pressure,119/95,mmHg,119/95,,mmHg,,END OF TREATMENT,9,2025-11-17,140
STUDY001,VS,STUDY001-SUBJ0010,45,HR,Heart Rate,87,beats/min,87,87.0,beats/min,,END OF TREATMENT,9,2025-11-17,140
STUDY001,VS,STUDY001-SUBJ0011,1,HEIGHT,Height,172.3,cm,172.3,172.3,cm,,SCREENING,1,2025-04-25,-14
STUDY001,VS,STUDY001-SUBJ0011,2,WEIGHT,Weight,85.6,kg,85.6,85.6,kg,,SCREENING,1,2025-04-25,-14
STUDY001,VS,STUDY001-SUBJ0011,3,TEMP,Temperature,36.3,C,36.3,36.3,C,,SCREENING,1,2025-04-25,-14
STUDY001,VS,STUDY001-SUBJ0011,4,BP,Blood Pressure,140/81,mmHg,140/81,,mmHg,,SCREENING,1,2025-04-25,-14
STUDY001,VS,STUDY001-SUBJ0011,5,HR,Heart Rate,70,beats/min,70,70.0,beats/min,,SCREENING,1,2025-04-25,-14
STUDY001,VS,STUDY001-SUBJ0011,6,HEIGHT,Height,172.4,cm,172.4,172.4,cm,Y,BASELINE,2,2025-05-09,1
STUDY001,VS,STUDY001-SUBJ0011,7,WEIGHT,Weight,84.4,kg,84.4,84.4,kg,Y,BASELINE,2,2025-05-09,1
STUDY001,VS,STUDY001-SUBJ0011,8,TEMP,Temperature,36.8,C,36.8,36.8,C,Y,BASELINE,2,2025-05-09,1
STUDY001,VS,STUDY001-SUBJ0011,9,BP,Blood Pressure,137/76,mmHg,137/76,,mmHg,Y,BASELINE,2,2025-05-09,1
STUDY001,VS,STUDY001-SUBJ0011,10,HR,Heart Rate,77,beats/min,77,77.0,beats/min,Y,BASELINE,2,2025-05-09,1
STUDY001,VS,STUDY001-SUBJ0011,11,HEIGHT,Height,172.2,cm,172.2,172.2,cm,,WEEK 1,3,2025-05-15,7
STUDY001,VS,STUDY001-SUBJ0011,12,WEIGHT,Weight,85.7,kg,85.7,85.7,kg,,WEEK 1,3,2025-05-15,7
STUDY001,VS,STUDY001-SUBJ0011,13,TEMP,Temperature,36.3,C,36.3,36.3,C,,WEEK 1,3,2025-05-15,7
STUDY001,VS,STUDY001-SUBJ0011,14,BP,Blood Pressure,136/80,mmHg,136/80,,mmHg,,WEEK 1,3,2025-05-15,7
STUDY001,VS,STUDY001-SUBJ0011,15,HR,Heart Rate,78,beats/min,78,78.0,beats/min,,WEEK 1,3,2025-05-15,7
STUDY001,VS,STUDY001-SUBJ0011,16,HEIGHT,Height,172.4,cm,172.4,172.4,cm,,WEEK 2,4,2025-05-22,14
STUDY001,VS,STUDY001-SUBJ0011,17,WEIGHT,Weight,85.3,kg,85.3,85.3,kg,,WEEK 2,4,2025-05-22,14
STUDY001,VS,STUDY001-SUBJ0011,18,TEMP,Temperature,36.7,C,36.7,36.7,C,,WEEK 2,4,2025-05-22,14
STUDY001,VS,STUDY001-SUBJ0011,19,BP,Blood Pressure,139/79,mmHg,139/79,,mmHg,,WEEK 2,4,2025-05-22,14
STUDY001,VS,STUDY001-SUBJ0011,20,HR,Heart Rate,75,beats/min,75,75.0,beats/min,,WEEK 2,4,2025-05-22,14
STUDY001,VS,STUDY001-SUBJ0011,21,HEIGHT,Height,172.1,cm,172.1,172.1,cm,,WEEK 4,5,2025-06-05,28
STUDY001,VS,STUDY001-SUBJ0011,22,WEIGHT,Weight,85.1,kg,85.1,85.1,kg,,WEEK 4,5,2025-06-05,28
STUDY001,VS,STUDY001-SUBJ0011,23,TEMP,Temperature,36.8,C,36.8,36.8,C,,WEEK 4,5,2025-06-05,28
STUDY001,VS,STUDY001-SUBJ0011,24,BP,Blood Pressure,136/83,mmHg,136/83,,mmHg,,WEEK 4,5,2025-06-05,28
STUDY001,VS,STUDY001-SUBJ0011,25,HR,Heart Rate,72,beats/min,72,72.0,beats/min,,WEEK 4,5,2025-06-05,28
STUDY001,VS,STUDY001-SUBJ0011,26,HEIGHT,Height,172.5,cm,172.5,172.5,cm,,WEEK 8,6,2025-07-03,56
STUDY001,VS,STUDY001-SUBJ0011,27,WEIGHT,Weight,85.2,kg,85.2,85.2,kg,,WEEK 8,6,2025-07-03,56
STUDY001,VS,STUDY001-SUBJ0011,28,TEMP,Temperature,36.8,C,36.8,36.8,C,,WEEK 8,6,2025-07-03,56
STUDY001,VS,STUDY001-SUBJ0011,29,BP,Blood Pressure,137/79,mmHg,137/79,,mmHg,,WEEK 8,6,2025-07-03,56
STUDY001,VS,STUDY001-SUBJ0011,30,HR,Heart Rate,70,beats/min,70,70.0,beats/min,,WEEK 8,6,2025-07-03,56
STUDY001,VS,STUDY001-SUBJ0011,31,HEIGHT,Height,172.1,cm,172.1,172.1,cm,,WEEK 12,7,2025-07-31,84
STUDY001,VS,STUDY001-SUBJ0011,32,WEIGHT,Weight,84.7,kg,84.7,84.7,kg,,WEEK 12,7,2025-07-31,84
STUDY001,VS,STUDY001-SUBJ0011,33,TEMP,Temperature,36.8,C,36.8,36.8,C,,WEEK 12,7,2025-07-31,84
STUDY001,VS,STUDY001-SUBJ0011,34,BP,Blood Pressure,141/75,mmHg,141/75,,mmHg,,WEEK 12,7,2025-07-31,84
STUDY001,VS,STUDY001-SUBJ0011,35,HR,Heart Rate,76,beats/min,76,76.0,beats/min,,WEEK 12,7,2025-07-31,84
STUDY001,VS,STUDY001-SUBJ0011,36,HEIGHT,Height,172.5,cm,172.5,172.5,cm,,WEEK 16,8,2025-08-28,112
STUDY001,VS,STUDY001-SUBJ0011,37,WEIGHT,Weight,84.9,kg,84.9,84.9,kg,,WEEK 16,8,2025-08-28,112
STUDY001,VS,STUDY001-SUBJ0011,38,TEMP,Temperature,36.5,C,36.5,36.5,C,,WEEK 16,8,2025-08-28,112
STUDY001,VS,STUDY001-SUBJ0011,39,BP,Blood Pressure,137/77,mmHg,137/77,,mmHg,,WEEK 16,8,2025-08-28,112
STUDY001,VS,STUDY001-SUBJ0011,40,HR,Heart Rate,76,beats/min,76,76.0,beats/min,,WEEK 16,8,2025-08-28,112
STUDY001,VS,STUDY001-SUBJ0011,41,HEIGHT,Height,172.5,cm,172.5,172.5,cm,,END OF TREATMENT,9,2025-09-25,140
STUDY001,VS,STUDY001-SUBJ0011,42,WEIGHT,Weight,85.2,kg,85.2,85.2,kg,,END OF TREATMENT,9,2025-09-25,140
STUDY001,VS,STUDY001-SUBJ0011,43,TEMP,Temperature,36.6,C,36.6,36.6,C,,END OF TREATMENT,9,2025-09-25,140
STUDY001,VS,STUDY001-SUBJ0011,44,BP,Blood Pressure,137/79,mmHg,137/79,,mmHg,,END OF TREATMENT,9,2025-09-25,140
STUDY001,VS,STUDY001-SUBJ0011,45,HR,Heart Rate,72,beats/min,72,72.0,beats/min,,END OF TREATMENT,9,2025-09-25,140
STUDY001,VS,STUDY001-SUBJ0012,1,HEIGHT,Height,179.8,cm,179.8,179.8,cm,,SCREENING,1,2025-06-27,-14
STUDY001,VS,STUDY001-SUBJ0012,2,WEIGHT,Weight,51.7,kg,51.7,51.7,kg,,SCREENING,1,2025-06-27,-14
STUDY001,VS,STUDY001-SUBJ0012,3,TEMP,Temperature,36.5,C,36.5,36.5,C,,SCREENING,1,2025-06-27,-14
STUDY001,VS,STUDY001-SUBJ0012,4,BP,Blood Pressure,119/78,mmHg,119/78,,mmHg,,SCREENING,1,2025-06-27,-14
STUDY001,VS,STUDY001-SUBJ0012,5,HR,Heart Rate,65,beats/min,65,65.0,beats/min,,SCREENING,1,2025-06-27,-14
STUDY001,VS,STUDY001-SUBJ0012,6,HEIGHT,Height,179.7,cm,179.7,179.7,cm,Y,BASELINE,2,2025-07-11,1
STUDY001,VS,STUDY001-SUBJ0012,7,WEIGHT,Weight,51.6,kg,51.6,51.6,kg,Y,BASELINE,2,2025-07-11,1
STUDY001,VS,STUDY001-SUBJ0012,8,TEMP,Temperature,36.8,C,36.8,36.8,C,Y,BASELINE,2,2025-07-11,1
STUDY001,VS,STUDY001-SUBJ0012,9,BP,Blood Pressure,124/71,mmHg,124/71,,mmHg,Y,BASELINE,2,2025-07-11,1
STUDY001,VS,STUDY001-SUBJ0012,10,HR,Heart Rate,59,beats/min,59,59.0,beats/min,Y,BASELINE,2,2025-07-11,1
STUDY001,VS,STUDY001-SUBJ0012,11,HEIGHT,Height,179.8,cm,179.8,179.8,cm,,WEEK 1,3,2025-07-17,7
STUDY001,VS,STUDY001-SUBJ0012,12,WEIGHT,Weight,51.9,kg,51.9,51.9,kg,,WEEK 1,3,2025-07-17,7
STUDY001,VS,STUDY001-SUBJ0012,13,TEMP,Temperature,36.8,C,36.8,36.8,C,,WEEK 1,3,2025-07-17,7
STUDY001,VS,STUDY001-SUBJ0012,14,BP,Blood Pressure,124/72,mmHg,124/72,,mmHg,,WEEK 1,3,2025-07-17,7
STUDY001,VS,STUDY001-SUBJ0012,15,HR,Heart Rate,65,beats/min,65,65.0,beats/min,,WEEK 1,3,2025-07-17,7
STUDY001,VS,STUDY001-SUBJ0012,16,HEIGHT,Height,179.9,cm,179.9,179.9,cm,,WEEK 2,4,2025-07-24,14
STUDY001,VS,STUDY001-SUBJ0012,17,WEIGHT,Weight,51.5,kg,51.5,51.5,kg,,WEEK 2,4,2025-07-24,14
STUDY001,VS,STUDY001-SUBJ0012,18,TEMP,Temperature,36.8,C,36.8,36.8,C,,WEEK 2,4,2025-07-24,14
STUDY001,VS,STUDY001-SUBJ0012,19,BP,Blood Pressure,116/72,mmHg,116/72,,mmHg,,WEEK 2,4,2025-07-24,14
STUDY001,VS,STUDY001-SUBJ0012,20,HR,Heart Rate,62,beats/min,62,62.0,beats/min,,WEEK 2,4,2025-07-24,14
STUDY001,VS,STUDY001-SUBJ0012,21,HEIGHT,Height,179.7,cm,179.7,179.7,cm,,WEEK 4,5,2025-08-07,28
STUDY001,VS,STUDY001-SUBJ0012,22,WEIGHT,Weight,50.8,kg,50.8,50.8,kg,,WEEK 4,5,2025-08-07,28
STUDY001,VS,STUDY001-SUBJ0012,23,TEMP,Temperature,36.8,C,36.8,36.8,C,,WEEK 4,5,2025-08-07,28
STUDY001,VS,STUDY001-SUBJ0012,24,BP,Blood Pressure,118/79,mmHg,118/79,,mmHg,,WEEK 4,5,2025-08-07,28
STUDY001,VS,STUDY001-SUBJ0012,25,HR,Heart Rate,64,beats/min,64,64.0,beats/min,,WEEK 4,5,2025-08-07,28
STUDY001,VS,STUDY001-SUBJ0012,26,HEIGHT,Height,179.9,cm,179.9,179.9,cm,,WEEK 8,6,2025-09-04,56
STUDY001,VS,STUDY001-SUBJ0012,27,WEIGHT,Weight,51.1,kg,51.1,51.1,kg,,WEEK 8,6,2025-09-04,56
STUDY001,VS,STUDY001-SUBJ0012,28,TEMP,Temperature,36.4,C,36.4,36.4,C,,WEEK 8,6,2025-09-04,56
STUDY001,VS,STUDY001-SUBJ0012,29,BP,Blood Pressure,121/71,mmHg,121/71,,mmHg,,WEEK 8,6,2025-09-04,56
STUDY001,VS,STUDY001-SUBJ0012,30,HR,Heart Rate,58,beats/min,58,58.0,beats/min,,WEEK 8,6,2025-09-04,56
STUDY001,VS,STUDY001-SUBJ0012,31,HEIGHT,Height,179.9,cm,179.9,179.9,cm,,WEEK 12,7,2025-10-02,84
STUDY001,VS,STUDY001-SUBJ0012,32,WEIGHT,Weight,50.0,kg,50.0,50.0,kg,,WEEK 12,7,2025-10-02,84
STUDY001,VS,STUDY001-SUBJ0012,33,TEMP,Temperature,36.7,C,36.7,36.7,C,,WEEK 12,7,2025-10-02,84
STUDY001,VS,STUDY001-SUBJ0012,34,BP,Blood Pressure,120/80,mmHg,120/80,,mmHg,,WEEK 12,7,2025-10-02,84
STUDY001,VS,STUDY001-SUBJ0012,35,HR,Heart Rate,58,beats/min,58,58.0,beats/min,,WEEK 12,7,2025-10-02,84
STUDY001,VS,STUDY001-SUBJ0012,36,HEIGHT,Height,179.8,cm,179.8,179.8,cm,,WEEK 16,8,2025-10-30,112
STUDY001,VS,STUDY001-SUBJ0012,37,WEIGHT,Weight,51.2,kg,51.2,51.2,kg,,WEEK 16,8,2025-10-30,112
STUDY001,VS,STUDY001-SUBJ0012,38,TEMP,Temperature,36.6,C,36.6,36.6,C,,WEEK 16,8,2025-10-30,112
STUDY001,VS,STUDY001-SUBJ0012,39,BP,Blood Pressure,124/75,mmHg,124/75,,mmHg,,WEEK 16,8,2025-10-30,112
STUDY001,VS,STUDY001-SUBJ0012,40,HR,Heart Rate,63,beats/min,63,63.0,beats/min,,WEEK 16,8,2025-10-30,112
STUDY001,VS,STUDY001-SUBJ0012,41,HEIGHT,Height,179.9,cm,179.9,179.9,cm,,END OF TREATMENT,9,2025-11-27,140
STUDY001,VS,STUDY001-SUBJ0012,42,WEIGHT,Weight,51.1,kg,51.1,51.1,kg,,END OF TREATMENT,9,2025-11-27,140
STUDY001,VS,STUDY001-SUBJ0012,43,TEMP,Temperature,36.8,C,36.8,36.8,C,,END OF TREATMENT,9,2025-11-27,140
STUDY001,VS,STUDY001-SUBJ0012,44,BP,Blood Pressure,121/80,mmHg,121/80,,mmHg,,END OF TREATMENT,9,2025-11-27,140
STUDY001,VS,STUDY001-SUBJ0012,45,HR,Heart Rate,58,beats/min,58,58.0,beats/min,,END OF TREATMENT,9,2025-11-27,140
STUDY001,VS,STUDY001-SUBJ0013,1,HEIGHT,Height,178.5,cm,178.5,178.5,cm,,SCREENING,1,2025-09-09,-14
STUDY001,VS,STUDY001-SUBJ0013,2,WEIGHT,Weight,52.2,kg,52.2,52.2,kg,,SCREENING,1,2025-09-09,-14
STUDY001,VS,STUDY001-SUBJ0013,3,TEMP,Temperature,36.1,C,36.1,36.1,C,,SCREENING,1,2025-09-09,-14
STUDY001,VS,STUDY001-SUBJ0013,4,BP,Blood Pressure,108/91,mmHg,108/91,,mmHg,,SCREENING,1,2025-09-09,-14
STUDY001,VS,STUDY001-SUBJ0013,5,HR,Heart Rate,77,beats/min,77,77.0,beats/min,,SCREENING,1,2025-09-09,-14
STUDY001,VS,STUDY001-SUBJ0013,6,HEIGHT,Height,178.5,cm,178.5,178.5,cm,Y,BASELINE,2,2025-09-23,1
STUDY001,VS,STUDY001-SUBJ0013,7,WEIGHT,Weight,52.0,kg,52.0,52.0,kg,Y,BASELINE,2,2025-09-23,1
STUDY001,VS,STUDY001-SUBJ0013,8,TEMP,Temperature,36.5,C,36.5,36.5,C,Y,BASELINE,2,2025-09-23,1
STUDY001,VS,STUDY001-SUBJ0013,9,BP,Blood Pressure,114/100,mmHg,114/100,,mmHg,Y,BASELINE,2,2025-09-23,1
STUDY001,VS,STUDY001-SUBJ0013,10,HR,Heart Rate,79,beats/min,79,79.0,beats/min,Y,BASELINE,2,2025-09-23,1
STUDY001,VS,STUDY001-SUBJ0013,11,HEIGHT,Height,178.7,cm,178.7,178.7,cm,,WEEK 1,3,2025-09-29,7
STUDY001,VS,STUDY001-SUBJ0013,12,WEIGHT,Weight,51.9,kg,51.9,51.9,kg,,WEEK 1,3,2025-09-29,7
STUDY001,VS,STUDY001-SUBJ0013,13,TEMP,Temperature,36.0,C,36.0,36.0,C,,WEEK 1,3,2025-09-29,7
STUDY001,VS,STUDY001-SUBJ0013,14,BP,Blood Pressure,107/93,mmHg,107/93,,mmHg,,WEEK 1,3,2025-09-29,7
STUDY001,VS,STUDY001-SUBJ0013,15,HR,Heart Rate,76,beats/min,76,76.0,beats/min,,WEEK 1,3,2025-09-29,7
STUDY001,VS,STUDY001-SUBJ0013,16,HEIGHT,Height,178.4,cm,178.4,178.4,cm,,WEEK 2,4,2025-10-06,14
STUDY001,VS,STUDY001-SUBJ0013,17,WEIGHT,Weight,51.0,kg,51.0,51.0,kg,,WEEK 2,4,2025-10-06,14
STUDY001,VS,STUDY001-SUBJ0013,18,TEMP,Temperature,36.6,C,36.6,36.6,C,,WEEK 2,4,2025-10-06,14
STUDY001,VS,STUDY001-SUBJ0013,19,BP,Blood Pressure,114/96,mmHg,114/96,,mmHg,,WEEK 2,4,2025-10-06,14
STUDY001,VS,STUDY001-SUBJ0013,20,HR,Heart Rate,82,beats/min,82,82.0,beats/min,,WEEK 2,4,2025-10-06,14
STUDY001,VS,STUDY001-SUBJ0013,21,HEIGHT,Height,178.4,cm,178.4,178.4,cm,,WEEK 4,5,2025-10-20,28
STUDY001,VS,STUDY001-SUBJ0013,22,WEIGHT,Weight,51.9,kg,51.9,51.9,kg,,WEEK 4,5,2025-10-20,28
STUDY001,VS,STUDY001-SUBJ0013,23,TEMP,Temperature,36.0,C,36.0,36.0,C,,WEEK 4,5,2025-10-20,28
STUDY001,VS,STUDY001-SUBJ0013,24,BP,Blood Pressure,112/94,mmHg,112/94,,mmHg,,WEEK 4,5,2025-10-20,28
STUDY001,VS,STUDY001-SUBJ0013,25,HR,Heart Rate,78,beats/min,78,78.0,beats/min,,WEEK 4,5,2025-10-20,28
STUDY001,VS,STUDY001-SUBJ0013,26,HEIGHT,Height,178.6,cm,178.6,178.6,cm,,WEEK 8,6,2025-11-17,56
STUDY001,VS,STUDY001-SUBJ0013,27,WEIGHT,Weight,51.2,kg,51.2,51.2,kg,,WEEK 8,6,2025-11-17,56
STUDY001,VS,STUDY001-SUBJ0013,28,TEMP,Temperature,36.5,C,36.5,36.5,C,,WEEK 8,6,2025-11-17,56
STUDY001,VS,STUDY001-SUBJ0013,29,BP,Blood Pressure,106/100,mmHg,106/100,,mmHg,,WEEK 8,6,2025-11-17,56
STUDY001,VS,STUDY001-SUBJ0013,30,HR,Heart Rate,76,beats/min,76,76.0,beats/min,,WEEK 8,6,2025-11-17,56
STUDY001,VS,STUDY001-SUBJ0013,31,HEIGHT,Height,178.5,cm,178.5,178.5,cm,,WEEK 12,7,2025-12-15,84
STUDY001,VS,STUDY001-SUBJ0013,32,WEIGHT,Weight,52.3,kg,52.3,52.3,kg,,WEEK 12,7,2025-12-15,84
STUDY001,VS,STUDY001-SUBJ0013,33,TEMP,Temperature,36.3,C,36.3,36.3,C,,WEEK 12,7,2025-12-15,84
STUDY001,VS,STUDY001-SUBJ0013,34,BP,Blood Pressure,106/91,mmHg,106/91,,mmHg,,WEEK 12,7,2025-12-15,84
STUDY001,VS,STUDY001-SUBJ0013,35,HR,Heart Rate,78,beats/min,78,78.0,beats/min,,WEEK 12,7,2025-12-15,84
STUDY001,VS,STUDY001-SUBJ0013,36,HEIGHT,Height,178.5,cm,178.5,178.5,cm,,WEEK 16,8,2026-01-12,112
STUDY001,VS,STUDY001-SUBJ0013,37,WEIGHT,Weight,51.9,kg,51.9,51.9,kg,,WEEK 16,8,2026-01-12,112
STUDY001,VS,STUDY001-SUBJ0013,38,TEMP,Temperature,36.4,C,36.4,36.4,C,,WEEK 16,8,2026-01-12,112
STUDY001,VS,STUDY001-SUBJ0013,39,BP,Blood Pressure,111/94,mmHg,111/94,,mmHg,,WEEK 16,8,2026-01-12,112
STUDY001,VS,STUDY001-SUBJ0013,40,HR,Heart Rate,78,beats/min,78,78.0,beats/min,,WEEK 16,8,2026-01-12,112
STUDY001,VS,STUDY001-SUBJ0013,41,HEIGHT,Height,178.7,cm,178.7,178.7,cm,,END OF TREATMENT,9,2026-02-09,140
STUDY001,VS,STUDY001-SUBJ0013,42,WEIGHT,Weight,51.0,kg,51.0,51.0,kg,,END OF TREATMENT,9,2026-02-09,140
STUDY001,VS,STUDY001-SUBJ0013,43,TEMP,Temperature,36.2,C,36.2,36.2,C,,END OF TREATMENT,9,2026-02-09,140
STUDY001,VS,STUDY001-SUBJ0013,44,BP,Blood Pressure,107/91,mmHg,107/91,,mmHg,,END OF TREATMENT,9,2026-02-09,140
STUDY001,VS,STUDY001-SUBJ0013,45,HR,Heart Rate,75,beats/min,75,75.0,beats/min,,END OF TREATMENT,9,2026-02-09,140
STUDY001,VS,STUDY001-SUBJ0014,1,HEIGHT,Height,182.8,cm,182.8,182.8,cm,,SCREENING,1,2024-11-26,-14
STUDY001,VS,STUDY001-SUBJ0014,2,WEIGHT,Weight,64.5,kg,64.5,64.5,kg,,SCREENING,1,2024-11-26,-14
STUDY001,VS,STUDY001-SUBJ0014,3,TEMP,Temperature,36.6,C,36.6,36.6,C,,SCREENING,1,2024-11-26,-14
STUDY001,VS,STUDY001-SUBJ0014,4,BP,Blood Pressure,137/69,mmHg,137/69,,mmHg,,SCREENING,1,2024-11-26,-14
STUDY001,VS,STUDY001-SUBJ0014,5,HR,Heart Rate,88,beats/min,88,88.0,beats/min,,SCREENING,1,2024-11-26,-14
STUDY001,VS,STUDY001-SUBJ0014,6,HEIGHT,Height,182.7,cm,182.7,182.7,cm,Y,BASELINE,2,2024-12-10,1
STUDY001,VS,STUDY001-SUBJ0014,7,WEIGHT,Weight,64.1,kg,64.1,64.1,kg,Y,BASELINE,2,2024-12-10,1
STUDY001,VS,STUDY001-SUBJ0014,8,TEMP,Temperature,37.1,C,37.1,37.1,C,Y,BASELINE,2,2024-12-10,1
STUDY001,VS,STUDY001-SUBJ0014,9,BP,Blood Pressure,139/71,mmHg,139/71,,mmHg,Y,BASELINE,2,2024-12-10,1
STUDY001,VS,STUDY001-SUBJ0014,10,HR,Heart Rate,81,beats/min,81,81.0,beats/min,Y,BASELINE,2,2024-12-10,1
STUDY001,VS,STUDY001-SUBJ0014,11,HEIGHT,Height,183.0,cm,183.0,183.0,cm,,WEEK 1,3,2024-12-16,7
STUDY001,VS,STUDY001-SUBJ0014,12,WEIGHT,Weight,64.1,kg,64.1,64.1,kg,,WEEK 1,3,2024-12-16,7
STUDY001,VS,STUDY001-SUBJ0014,13,TEMP,Temperature,36.6,C,36.6,36.6,C,,WEEK 1,3,2024-12-16,7
STUDY001,VS,STUDY001-SUBJ0014,14,BP,Blood Pressure,136/68,mmHg,136/68,,mmHg,,WEEK 1,3,2024-12-16,7
STUDY001,VS,STUDY001-SUBJ0014,15,HR,Heart Rate,87,beats/min,87,87.0,beats/min,,WEEK 1,3,2024-12-16,7
STUDY001,VS,STUDY001-SUBJ0014,16,HEIGHT,Height,183.0,cm,183.0,183.0,cm,,WEEK 2,4,2024-12-23,14
STUDY001,VS,STUDY001-SUBJ0014,17,WEIGHT,Weight,63.5,kg,63.5,63.5,kg,,WEEK 2,4,2024-12-23,14
STUDY001,VS,STUDY001-SUBJ0014,18,TEMP,Temperature,37.1,C,37.1,37.1,C,,WEEK 2,4,2024-12-23,14
STUDY001,VS,STUDY001-SUBJ0014,19,BP,Blood Pressure,141/76,mmHg,141/76,,mmHg,,WEEK 2,4,2024-12-23,14
STUDY001,VS,STUDY001-SUBJ0014,20,HR,Heart Rate,83,beats/min,83,83.0,beats/min,,WEEK 2,4,2024-12-23,14
STUDY001,VS,STUDY001-SUBJ0014,21,HEIGHT,Height,182.7,cm,182.7,182.7,cm,,WEEK 4,5,2025-01-06,28
STUDY001,VS,STUDY001-SUBJ0014,22,WEIGHT,Weight,63.2,kg,63.2,63.2,kg,,WEEK 4,5,2025-01-06,28
STUDY001,VS,STUDY001-SUBJ0014,23,TEMP,Temperature,36.6,C,36.6,36.6,C,,WEEK 4,5,2025-01-06,28
STUDY001,VS,STUDY001-SUBJ0014,24,BP,Blood Pressure,142/72,mmHg,142/72,,mmHg,,WEEK 4,5,2025-01-06,28
STUDY001,VS,STUDY001-SUBJ0014,25,HR,Heart Rate,79,beats/min,79,79.0,beats/min,,WEEK 4,5,2025-01-06,28
STUDY001,VS,STUDY001-SUBJ0014,26,HEIGHT,Height,182.8,cm,182.8,182.8,cm,,WEEK 8,6,2025-02-03,56
STUDY001,VS,STUDY001-SUBJ0014,27,WEIGHT,Weight,62.9,kg,62.9,62.9,kg,,WEEK 8,6,2025-02-03,56
STUDY001,VS,STUDY001-SUBJ0014,28,TEMP,Temperature,36.6,C,36.6,36.6,C,,WEEK 8,6,2025-02-03,56
STUDY001,VS,STUDY001-SUBJ0014,29,BP,Blood Pressure,136/73,mmHg,136/73,,mmHg,,WEEK 8,6,2025-02-03,56
STUDY001,VS,STUDY001-SUBJ0014,30,HR,Heart Rate,80,beats/min,80,80.0,beats/min,,WEEK 8,6,2025-02-03,56
STUDY001,VS,STUDY001-SUBJ0014,31,HEIGHT,Height,182.6,cm,182.6,182.6,cm,,WEEK 12,7,2025-03-03,84
STUDY001,VS,STUDY001-SUBJ0014,32,WEIGHT,Weight,63.3,kg,63.3,63.3,kg,,WEEK 12,7,2025-03-03,84
STUDY001,VS,STUDY001-SUBJ0014,33,TEMP,Temperature,37.1,C,37.1,37.1,C,,WEEK 12,7,2025-03-03,84
STUDY001,VS,STUDY001-SUBJ0014,34,BP,Blood Pressure,139/67,mmHg,139/67,,mmHg,,WEEK 12,7,2025-03-03,84
STUDY001,VS,STUDY001-SUBJ0014,35,HR,Heart Rate,86,beats/min,86,86.0,beats/min,,WEEK 12,7,2025-03-03,84
STUDY001,VS,STUDY001-SUBJ0014,36,HEIGHT,Height,182.8,cm,182.8,182.8,cm,,WEEK 16,8,2025-03-31,112
STUDY001,VS,STUDY001-SUBJ0014,37,WEIGHT,Weight,64.2,kg,64.2,64.2,kg,,WEEK 16,8,2025-03-31,112
STUDY001,VS,STUDY001-SUBJ0014,38,TEMP,Temperature,36.8,C,36.8,36.8,C,,WEEK 16,8,2025-03-31,112
STUDY001,VS,STUDY001-SUBJ0014,39,BP,Blood Pressure,135/74,mmHg,135/74,,mmHg,,WEEK 16,8,2025-03-31,112
STUDY001,VS,STUDY001-SUBJ0014,40,HR,Heart Rate,86,beats/min,86,86.0,beats/min,,WEEK 16,8,2025-03-31,112
STUDY001,VS,STUDY001-SUBJ0014,41,HEIGHT,Height,182.8,cm,182.8,182.8,cm,,END OF TREATMENT,9,2025-04-28,140
STUDY001,VS,STUDY001-SUBJ0014,42,WEIGHT,Weight,63.3,kg,63.3,63.3,kg,,END OF TREATMENT,9,2025-04-28,140
STUDY001,VS,STUDY001-SUBJ0014,43,TEMP,Temperature,36.8,C,36.8,36.8,C,,END OF TREATMENT,9,2025-04-28,140
STUDY001,VS,STUDY001-SUBJ0014,44,BP,Blood Pressure,138/71,mmHg,138/71,,mmHg,,END OF TREATMENT,9,2025-04-28,140
STUDY001,VS,STUDY001-SUBJ0014,45,HR,Heart Rate,88,beats/min,88,88.0,beats/min,,END OF TREATMENT,9,2025-04-28,140
STUDY001,VS,STUDY001-SUBJ0015,1,HEIGHT,Height,160.2,cm,160.2,160.2,cm,,SCREENING,1,2025-06-28,-14
STUDY001,VS,STUDY001-SUBJ0015,2,WEIGHT,Weight,85.2,kg,85.2,85.2,kg,,SCREENING,1,2025-06-28,-14
STUDY001,VS,STUDY001-SUBJ0015,3,TEMP,Temperature,36.3,C,36.3,36.3,C,,SCREENING,1,2025-06-28,-14
STUDY001,VS,STUDY001-SUBJ0015,4,BP,Blood Pressure,139/92,mmHg,139/92,,mmHg,,SCREENING,1,2025-06-28,-14
STUDY001,VS,STUDY001-SUBJ0015,5,HR,Heart Rate,87,beats/min,87,87.0,beats/min,,SCREENING,1,2025-06-28,-14
STUDY001,VS,STUDY001-SUBJ0015,6,HEIGHT,Height,160.3,cm,160.3,160.3,cm,Y,BASELINE,2,2025-07-12,1
STUDY001,VS,STUDY001-SUBJ0015,7,WEIGHT,Weight,84.9,kg,84.9,84.9,kg,Y,BASELINE,2,2025-07-12,1
STUDY001,VS,STUDY001-SUBJ0015,8,TEMP,Temperature,36.2,C,36.2,36.2,C,Y,BASELINE,2,2025-07-12,1
STUDY001,VS,STUDY001-SUBJ0015,9,BP,Blood Pressure,148/97,mmHg,148/97,,mmHg,Y,BASELINE,2,2025-07-12,1
STUDY001,VS,STUDY001-SUBJ0015,10,HR,Heart Rate,89,beats/min,89,89.0,beats/min,Y,BASELINE,2,2025-07-12,1
STUDY001,VS,STUDY001-SUBJ0015,11,HEIGHT,Height,160.3,cm,160.3,160.3,cm,,WEEK 1,3,2025-07-18,7
STUDY001,VS,STUDY001-SUBJ0015,12,WEIGHT,Weight,84.5,kg,84.5,84.5,kg,,WEEK 1,3,2025-07-18,7
STUDY001,VS,STUDY001-SUBJ0015,13,TEMP,Temperature,36.3,C,36.3,36.3,C,,WEEK 1,3,2025-07-18,7
STUDY001,VS,STUDY001-SUBJ0015,14,BP,Blood Pressure,147/94,mmHg,147/94,,mmHg,,WEEK 1,3,2025-07-18,7
STUDY001,VS,STUDY001-SUBJ0015,15,HR,Heart Rate,83,beats/min,83,83.0,beats/min,,WEEK 1,3,2025-07-18,7
STUDY001,VS,STUDY001-SUBJ0015,16,HEIGHT,Height,160.1,cm,160.1,160.1,cm,,WEEK 2,4,2025-07-25,14
STUDY001,VS,STUDY001-SUBJ0015,17,WEIGHT,Weight,83.7,kg,83.7,83.7,kg,,WEEK 2,4,2025-07-25,14
STUDY001,VS,STUDY001-SUBJ0015,18,TEMP,Temperature,36.1,C,36.1,36.1,C,,WEEK 2,4,2025-07-25,14
STUDY001,VS,STUDY001-SUBJ0015,19,BP,Blood Pressure,142/91,mmHg,142/91,,mmHg,,WEEK 2,4,2025-07-25,14
STUDY001,VS,STUDY001-SUBJ0015,20,HR,Heart Rate,83,beats/min,83,83.0,beats/min,,WEEK 2,4,2025-07-25,14
STUDY001,VS,STUDY001-SUBJ0015,21,HEIGHT,Height,160.1,cm,160.1,160.1,cm,,WEEK 4,5,2025-08-08,28
STUDY001,VS,STUDY001-SUBJ0015,22,WEIGHT,Weight,85.4,kg,85.4,85.4,kg,,WEEK 4,5,2025-08-08,28
STUDY001,VS,STUDY001-SUBJ0015,23,TEMP,Temperature,36.2,C,36.2,36.2,C,,WEEK 4,5,2025-08-08,28
STUDY001,VS,STUDY001-SUBJ0015,24,BP,Blood Pressure,141/91,mmHg,141/91,,mmHg,,WEEK 4,5,2025-08-08,28
STUDY001,VS,STUDY001-SUBJ0015,25,HR,Heart Rate,84,beats/min,84,84.0,beats/min,,WEEK 4,5,2025-08-08,28
STUDY001,VS,STUDY001-SUBJ0015,26,HEIGHT,Height,160.2,cm,160.2,160.2,cm,,WEEK 8,6,2025-09-05,56
STUDY001,VS,STUDY001-SUBJ0015,27,WEIGHT,Weight,83.8,kg,83.8,83.8,kg,,WEEK 8,6,2025-09-05,56
STUDY001,VS,STUDY001-SUBJ0015,28,TEMP,Temperature,36.4,C,36.4,36.4,C,,WEEK 8,6,2025-09-05,56
STUDY001,VS,STUDY001-SUBJ0015,29,BP,Blood Pressure,141/97,mmHg,141/97,,mmHg,,WEEK 8,6,2025-09-05,56
STUDY001,VS,STUDY001-SUBJ0015,30,HR,Heart Rate,81,beats/min,81,81.0,beats/min,,WEEK 8,6,2025-09-05,56
STUDY001,VS,STUDY001-SUBJ0015,31,HEIGHT,Height,160.0,cm,160.0,160.0,cm,,WEEK 12,7,2025-10-03,84
STUDY001,VS,STUDY001-SUBJ0015,32,WEIGHT,Weight,85.3,kg,85.3,85.3,kg,,WEEK 12,7,2025-10-03,84
STUDY001,VS,STUDY001-SUBJ0015,33,TEMP,Temperature,36.5,C,36.5,36.5,C,,WEEK 12,7,2025-10-03,84
STUDY001,VS,STUDY001-SUBJ0015,34,BP,Blood Pressure,142/92,mmHg,142/92,,mmHg,,WEEK 12,7,2025-10-03,84
STUDY001,VS,STUDY001-SUBJ0015,35,HR,Heart Rate,82,beats/min,82,82.0,beats/min,,WEEK 12,7,2025-10-03,84
STUDY001,VS,STUDY001-SUBJ0015,36,HEIGHT,Height,160.4,cm,160.4,160.4,cm,,WEEK 16,8,2025-10-31,112
STUDY001,VS,STUDY001-SUBJ0015,37,WEIGHT,Weight,83.5,kg,83.5,83.5,kg,,WEEK 16,8,2025-10-31,112
STUDY001,VS,STUDY001-SUBJ0015,38,TEMP,Temperature,36.4,C,36.4,36.4,C,,WEEK 16,8,2025-10-31,112
STUDY001,VS,STUDY001-SUBJ0015,39,BP,Blood Pressure,145/91,mmHg,145/91,,mmHg,,WEEK 16,8,2025-10-31,112
STUDY001,VS,STUDY001-SUBJ0015,40,HR,Heart Rate,86,beats/min,86,86.0,beats/min,,WEEK 16,8,2025-10-31,112
STUDY001,VS,STUDY001-SUBJ0015,41,HEIGHT,Height,160.3,cm,160.3,160.3,cm,,END OF TREATMENT,9,2025-11-28,140
STUDY001,VS,STUDY001-SUBJ0015,42,WEIGHT,Weight,84.1,kg,84.1,84.1,kg,,END OF TREATMENT,9,2025-11-28,140
STUDY001,VS,STUDY001-SUBJ0015,43,TEMP,Temperature,36.5,C,36.5,36.5,C,,END OF TREATMENT,9,2025-11-28,140
STUDY001,VS,STUDY001-SUBJ0015,44,BP,Blood Pressure,143/98,mmHg,143/98,,mmHg,,END OF TREATMENT,9,2025-11-28,140
STUDY001,VS,STUDY001-SUBJ0015,45,HR,Heart Rate,81,beats/min,81,81.0,beats/min,,END OF TREATMENT,9,2025-11-28,140
STUDY001,VS,STUDY001-SUBJ0016,1,HEIGHT,Height,156.7,cm,156.7,156.7,cm,,SCREENING,1,2025-09-10,-14
STUDY001,VS,STUDY001-SUBJ0016,2,WEIGHT,Weight,75.5,kg,75.5,75.5,kg,,SCREENING,1,2025-09-10,-14
STUDY001,VS,STUDY001-SUBJ0016,3,TEMP,Temperature,36.8,C,36.8,36.8,C,,SCREENING,1,2025-09-10,-14
STUDY001,VS,STUDY001-SUBJ0016,4,BP,Blood Pressure,147/95,mmHg,147/95,,mmHg,,SCREENING,1,2025-09-10,-14
STUDY001,VS,STUDY001-SUBJ0016,5,HR,Heart Rate,58,beats/min,58,58.0,beats/min,,SCREENING,1,2025-09-10,-14
STUDY001,VS,STUDY001-SUBJ0016,6,HEIGHT,Height,156.9,cm,156.9,156.9,cm,Y,BASELINE,2,2025-09-24,1
STUDY001,VS,STUDY001-SUBJ0016,7,WEIGHT,Weight,75.3,kg,75.3,75.3,kg,Y,BASELINE,2,2025-09-24,1
STUDY001,VS,STUDY001-SUBJ0016,8,TEMP,Temperature,36.7,C,36.7,36.7,C,Y,BASELINE,2,2025-09-24,1
STUDY001,VS,STUDY001-SUBJ0016,9,BP,Blood Pressure,144/88,mmHg,144/88,,mmHg,Y,BASELINE,2,2025-09-24,1
STUDY001,VS,STUDY001-SUBJ0016,10,HR,Heart Rate,60,beats/min,60,60.0,beats/min,Y,BASELINE,2,2025-09-24,1
STUDY001,VS,STUDY001-SUBJ0016,11,HEIGHT,Height,156.9,cm,156.9,156.9,cm,,WEEK 1,3,2025-09-30,7
STUDY001,VS,STUDY001-SUBJ0016,12,WEIGHT,Weight,75.7,kg,75.7,75.7,kg,,WEEK 1,3,2025-09-30,7
STUDY001,VS,STUDY001-SUBJ0016,13,TEMP,Temperature,36.9,C,36.9,36.9,C,,WEEK 1,3,2025-09-30,7
STUDY001,VS,STUDY001-SUBJ0016,14,BP,Blood Pressure,144/93,mmHg,144/93,,mmHg,,WEEK 1,3,2025-09-30,7
STUDY001,VS,STUDY001-SUBJ0016,15,HR,Heart Rate,58,beats/min,58,58.0,beats/min,,WEEK 1,3,2025-09-30,7
STUDY001,VS,STUDY001-SUBJ0016,16,HEIGHT,Height,156.6,cm,156.6,156.6,cm,,WEEK 2,4,2025-10-07,14
STUDY001,VS,STUDY001-SUBJ0016,17,WEIGHT,Weight,74.6,kg,74.6,74.6,kg,,WEEK 2,4,2025-10-07,14
STUDY001,VS,STUDY001-SUBJ0016,18,TEMP,Temperature,36.6,C,36.6,36.6,C,,WEEK 2,4,2025-10-07,14
STUDY001,VS,STUDY001-SUBJ0016,19,BP,Blood Pressure,149/95,mmHg,149/95,,mmHg,,WEEK 2,4,2025-10-07,14
STUDY001,VS,STUDY001-SUBJ0016,20,HR,Heart Rate,63,beats/min,63,63.0,beats/min,,WEEK 2,4,2025-10-07,14
STUDY001,VS,STUDY001-SUBJ0016,21,HEIGHT,Height,156.6,cm,156.6,156.6,cm,,WEEK 4,5,2025-10-21,28
STUDY001,VS,STUDY001-SUBJ0016,22,WEIGHT,Weight,75.0,kg,75.0,75.0,kg,,WEEK 4,5,2025-10-21,28
STUDY001,VS,STUDY001-SUBJ0016,23,TEMP,Temperature,36.6,C,36.6,36.6,C,,WEEK 4,5,2025-10-21,28
STUDY001,VS,STUDY001-SUBJ0016,24,BP,Blood Pressure,150/92,mmHg,150/92,,mmHg,,WEEK 4,5,2025-10-21,28
STUDY001,VS,STUDY001-SUBJ0016,25,HR,Heart Rate,66,beats/min,66,66.0,beats/min,,WEEK 4,5,2025-10-21,28
STUDY001,VS,STUDY001-SUBJ0016,26,HEIGHT,Height,156.9,cm,156.9,156.9,cm,,WEEK 8,6,2025-11-18,56
STUDY001,VS,STUDY001-SUBJ0016,27,WEIGHT,Weight,76.1,kg,76.1,76.1,kg,,WEEK 8,6,2025-11-18,56
STUDY001,VS,STUDY001-SUBJ0016,28,TEMP,Temperature,36.8,C,36.8,36.8,C,,WEEK 8,6,2025-11-18,56
STUDY001,VS,STUDY001-SUBJ0016,29,BP,Blood Pressure,143/88,mmHg,143/88,,mmHg,,WEEK 8,6,2025-11-18,56
STUDY001,VS,STUDY001-SUBJ0016,30,HR,Heart Rate,64,beats/min,64,64.0,beats/min,,WEEK 8,6,2025-11-18,56
STUDY001,VS,STUDY001-SUBJ0016,31,HEIGHT,Height,156.9,cm,156.9,156.9,cm,,WEEK 12,7,2025-12-16,84
STUDY001,VS,STUDY001-SUBJ0016,32,WEIGHT,Weight,76.4,kg,76.4,76.4,kg,,WEEK 12,7,2025-12-16,84
STUDY001,VS,STUDY001-SUBJ0016,33,TEMP,Temperature,36.4,C,36.4,36.4,C,,WEEK 12,7,2025-12-16,84
STUDY001,VS,STUDY001-SUBJ0016,34,BP,Blood Pressure,145/93,mmHg,145/93,,mmHg,,WEEK 12,7,2025-12-16,84
STUDY001,VS,STUDY001-SUBJ0016,35,HR,Heart Rate,62,beats/min,62,62.0,beats/min,,WEEK 12,7,2025-12-16,84
STUDY001,VS,STUDY001-SUBJ0016,36,HEIGHT,Height,156.7,cm,156.7,156.7,cm,,WEEK 16,8,2026-01-13,112
STUDY001,VS,STUDY001-SUBJ0016,37,WEIGHT,Weight,74.9,kg,74.9,74.9,kg,,WEEK 16,8,2026-01-13,112
STUDY001,VS,STUDY001-SUBJ0016,38,TEMP,Temperature,36.6,C,36.6,36.6,C,,WEEK 16,8,2026-01-13,112
STUDY001,VS,STUDY001-SUBJ0016,39,BP,Blood Pressure,145/87,mmHg,145/87,,mmHg,,WEEK 16,8,2026-01-13,112
STUDY001,VS,STUDY001-SUBJ0016,40,HR,Heart Rate,65,beats/min,65,65.0,beats/min,,WEEK 16,8,2026-01-13,112
STUDY001,VS,STUDY001-SUBJ0016,41,HEIGHT,Height,156.9,cm,156.9,156.9,cm,,END OF TREATMENT,9,2026-02-10,140
STUDY001,VS,STUDY001-SUBJ0016,42,WEIGHT,Weight,74.8,kg,74.8,74.8,kg,,END OF TREATMENT,9,2026-02-10,140
STUDY001,VS,STUDY001-SUBJ0016,43,TEMP,Temperature,36.5,C,36.5,36.5,C,,END OF TREATMENT,9,2026-02-10,140
STUDY001,VS,STUDY001-SUBJ0016,44,BP,Blood Pressure,149/92,mmHg,149/92,,mmHg,,END OF TREATMENT,9,2026-02-10,140
STUDY001,VS,STUDY001-SUBJ0016,45,HR,Heart Rate,66,beats/min,66,66.0,beats/min,,END OF TREATMENT,9,2026-02-10,140
STUDY001,VS,STUDY001-SUBJ0017,1,HEIGHT,Height,192.1,cm,192.1,192.1,cm,,SCREENING,1,2025-04-01,-14
STUDY001,VS,STUDY001-SUBJ0017,2,WEIGHT,Weight,57.1,kg,57.1,57.1,kg,,SCREENING,1,2025-04-01,-14
STUDY001,VS,STUDY001-SUBJ0017,3,TEMP,Temperature,36.9,C,36.9,36.9,C,,SCREENING,1,2025-04-01,-14
STUDY001,VS,STUDY001-SUBJ0017,4,BP,Blood Pressure,128/72,mmHg,128/72,,mmHg,,SCREENING,1,2025-04-01,-14
STUDY001,VS,STUDY001-SUBJ0017,5,HR,Heart Rate,79,beats/min,79,79.0,beats/min,,SCREENING,1,2025-04-01,-14
STUDY001,VS,STUDY001-SUBJ0017,6,HEIGHT,Height,192.0,cm,192.0,192.0,cm,Y,BASELINE,2,2025-04-15,1
STUDY001,VS,STUDY001-SUBJ0017,7,WEIGHT,Weight,57.3,kg,57.3,57.3,kg,Y,BASELINE,2,2025-04-15,1
STUDY001,VS,STUDY001-SUBJ0017,8,TEMP,Temperature,36.7,C,36.7,36.7,C,Y,BASELINE,2,2025-04-15,1
STUDY001,VS,STUDY001-SUBJ0017,9,BP,Blood Pressure,130/77,mmHg,130/77,,mmHg,Y,BASELINE,2,2025-04-15,1
STUDY001,VS,STUDY001-SUBJ0017,10,HR,Heart Rate,80,beats/min,80,80.0,beats/min,Y,BASELINE,2,2025-04-15,1
STUDY001,VS,STUDY001-SUBJ0017,11,HEIGHT,Height,192.1,cm,192.1,192.1,cm,,WEEK 1,3,2025-04-21,7
STUDY001,VS,STUDY001-SUBJ0017,12,WEIGHT,Weight,56.7,kg,56.7,56.7,kg,,WEEK 1,3,2025-04-21,7
STUDY001,VS,STUDY001-SUBJ0017,13,TEMP,Temperature,36.8,C,36.8,36.8,C,,WEEK 1,3,2025-04-21,7
STUDY001,VS,STUDY001-SUBJ0017,14,BP,Blood Pressure,134/74,mmHg,134/74,,mmHg,,WEEK 1,3,2025-04-21,7
STUDY001,VS,STUDY001-SUBJ0017,15,HR,Heart Rate,78,beats/min,78,78.0,beats/min,,WEEK 1,3,2025-04-21,7
STUDY001,VS,STUDY001-SUBJ0017,16,HEIGHT,Height,192.2,cm,192.2,192.2,cm,,WEEK 2,4,2025-04-28,14
STUDY001,VS,STUDY001-SUBJ0017,17,WEIGHT,Weight,56.0,kg,56.0,56.0,kg,,WEEK 2,4,2025-04-28,14
STUDY001,VS,STUDY001-SUBJ0017,18,TEMP,Temperature,36.8,C,36.8,36.8,C,,WEEK 2,4,2025-04-28,14
STUDY001,VS,STUDY001-SUBJ0017,19,BP,Blood Pressure,130/72,mmHg,130/72,,mmHg,,WEEK 2,4,2025-04-28,14
STUDY001,VS,STUDY001-SUBJ0017,20,HR,Heart Rate,84,beats/min,84,84.0,beats/min,,WEEK 2,4,2025-04-28,14
STUDY001,VS,STUDY001-SUBJ0017,21,HEIGHT,Height,192.0,cm,192.0,192.0,cm,,WEEK 4,5,2025-05-12,28
STUDY001,VS,STUDY001-SUBJ0017,22,WEIGHT,Weight,56.0,kg,56.0,56.0,kg,,WEEK 4,5,2025-05-12,28
STUDY001,VS,STUDY001-SUBJ0017,23,TEMP,Temperature,37.1,C,37.1,37.1,C,,WEEK 4,5,2025-05-12,28
STUDY001,VS,STUDY001-SUBJ0017,24,BP,Blood Pressure,132/75,mmHg,132/75,,mmHg,,WEEK 4,5,2025-05-12,28
STUDY001,VS,STUDY001-SUBJ0017,25,HR,Heart Rate,83,beats/min,83,83.0,beats/min,,WEEK 4,5,2025-05-12,28
STUDY001,VS,STUDY001-SUBJ0017,26,HEIGHT,Height,192.0,cm,192.0,192.0,cm,,WEEK 8,6,2025-06-09,56
STUDY001,VS,STUDY001-SUBJ0017,27,WEIGHT,Weight,55.5,kg,55.5,55.5,kg,,WEEK 8,6,2025-06-09,56
STUDY001,VS,STUDY001-SUBJ0017,28,TEMP,Temperature,36.7,C,36.7,36.7,C,,WEEK 8,6,2025-06-09,56
STUDY001,VS,STUDY001-SUBJ0017,29,BP,Blood Pressure,129/71,mmHg,129/71,,mmHg,,WEEK 8,6,2025-06-09,56
STUDY001,VS,STUDY001-SUBJ0017,30,HR,Heart Rate,85,beats/min,85,85.0,beats/min,,WEEK 8,6,2025-06-09,56
STUDY001,VS,STUDY001-SUBJ0017,31,HEIGHT,Height,192.2,cm,192.2,192.2,cm,,WEEK 12,7,2025-07-07,84
STUDY001,VS,STUDY001-SUBJ0017,32,WEIGHT,Weight,56.4,kg,56.4,56.4,kg,,WEEK 12,7,2025-07-07,84
STUDY001,VS,STUDY001-SUBJ0017,33,TEMP,Temperature,37.2,C,37.2,37.2,C,,WEEK 12,7,2025-07-07,84
STUDY001,VS,STUDY001-SUBJ0017,34,BP,Blood Pressure,135/71,mmHg,135/71,,mmHg,,WEEK 12,7,2025-07-07,84
STUDY001,VS,STUDY001-SUBJ0017,35,HR,Heart Rate,84,beats/min,84,84.0,beats/min,,WEEK 12,7,2025-07-07,84
STUDY001,VS,STUDY001-SUBJ0017,36,HEIGHT,Height,191.9,cm,191.9,191.9,cm,,WEEK 16,8,2025-08-04,112
STUDY001,VS,STUDY001-SUBJ0017,37,WEIGHT,Weight,56.7,kg,56.7,56.7,kg,,WEEK 16,8,2025-08-04,112
STUDY001,VS,STUDY001-SUBJ0017,38,TEMP,Temperature,37.2,C,37.2,37.2,C,,WEEK 16,8,2025-08-04,112
STUDY001,VS,STUDY001-SUBJ0017,39,BP,Blood Pressure,131/72,mmHg,131/72,,mmHg,,WEEK 16,8,2025-08-04,112
STUDY001,VS,STUDY001-SUBJ0017,40,HR,Heart Rate,83,beats/min,83,83.0,beats/min,,WEEK 16,8,2025-08-04,112
STUDY001,VS,STUDY001-SUBJ0017,41,HEIGHT,Height,192.3,cm,192.3,192.3,cm,,END OF TREATMENT,9,2025-09-01,140
STUDY001,VS,STUDY001-SUBJ0017,42,WEIGHT,Weight,56.8,kg,56.8,56.8,kg,,END OF TREATMENT,9,2025-09-01,140
STUDY001,VS,STUDY001-SUBJ0017,43,TEMP,Temperature,36.7,C,36.7,36.7,C,,END OF TREATMENT,9,2025-09-01,140
STUDY001,VS,STUDY001-SUBJ0017,44,BP,Blood Pressure,132/70,mmHg,132/70,,mmHg,,END OF TREATMENT,9,2025-09-01,140
STUDY001,VS,STUDY001-SUBJ0017,45,HR,Heart Rate,78,beats/min,78,78.0,beats/min,,END OF TREATMENT,9,2025-09-01,140
STUDY001,VS,STUDY001-SUBJ0018,1,HEIGHT,Height,190.0,cm,190.0,190.0,cm,,SCREENING,1,2025-08-27,-14
STUDY001,VS,STUDY001-SUBJ0018,2,WEIGHT,Weight,76.3,kg,76.3,76.3,kg,,SCREENING,1,2025-08-27,-14
STUDY001,VS,STUDY001-SUBJ0018,3,TEMP,Temperature,37.1,C,37.1,37.1,C,,SCREENING,1,2025-08-27,-14
STUDY001,VS,STUDY001-SUBJ0018,4,BP,Blood Pressure,117/101,mmHg,117/101,,mmHg,,SCREENING,1,2025-08-27,-14
STUDY001,VS,STUDY001-SUBJ0018,5,HR,Heart Rate,87,beats/min,87,87.0,beats/min,,SCREENING,1,2025-08-27,-14
STUDY001,VS,STUDY001-SUBJ0018,6,HEIGHT,Height,189.9,cm,189.9,189.9,cm,Y,BASELINE,2,2025-09-10,1
STUDY001,VS,STUDY001-SUBJ0018,7,WEIGHT,Weight,77.3,kg,77.3,77.3,kg,Y,BASELINE,2,2025-09-10,1
STUDY001,VS,STUDY001-SUBJ0018,8,TEMP,Temperature,37.0,C,37.0,37.0,C,Y,BASELINE,2,2025-09-10,1
STUDY001,VS,STUDY001-SUBJ0018,9,BP,Blood Pressure,110/93,mmHg,110/93,,mmHg,Y,BASELINE,2,2025-09-10,1
STUDY001,VS,STUDY001-SUBJ0018,10,HR,Heart Rate,91,beats/min,91,91.0,beats/min,Y,BASELINE,2,2025-09-10,1
STUDY001,VS,STUDY001-SUBJ0018,11,HEIGHT,Height,190.2,cm,190.2,190.2,cm,,WEEK 1,3,2025-09-16,7
STUDY001,VS,STUDY001-SUBJ0018,12,WEIGHT,Weight,77.6,kg,77.6,77.6,kg,,WEEK 1,3,2025-09-16,7
STUDY001,VS,STUDY001-SUBJ0018,13,TEMP,Temperature,37.1,C,37.1,37.1,C,,WEEK 1,3,2025-09-16,7
STUDY001,VS,STUDY001-SUBJ0018,14,BP,Blood Pressure,118/93,mmHg,118/93,,mmHg,,WEEK 1,3,2025-09-16,7
STUDY001,VS,STUDY001-SUBJ0018,15,HR,Heart Rate,88,beats/min,88,88.0,beats/min,,WEEK 1,3,2025-09-16,7
STUDY001,VS,STUDY001-SUBJ0018,16,HEIGHT,Height,190.2,cm,190.2,190.2,cm,,WEEK 2,4,2025-09-23,14
STUDY001,VS,STUDY001-SUBJ0018,17,WEIGHT,Weight,76.3,kg,76.3,76.3,kg,,WEEK 2,4,2025-09-23,14
STUDY001,VS,STUDY001-SUBJ0018,18,TEMP,Temperature,37.3,C,37.3,37.3,C,,WEEK 2,4,2025-09-23,14
STUDY001,VS,STUDY001-SUBJ0018,19,BP,Blood Pressure,117/95,mmHg,117/95,,mmHg,,WEEK 2,4,2025-09-23,14
STUDY001,VS,STUDY001-SUBJ0018,20,HR,Heart Rate,88,beats/min,88,88.0,beats/min,,WEEK 2,4,2025-09-23,14
STUDY001,VS,STUDY001-SUBJ0018,21,HEIGHT,Height,190.1,cm,190.1,190.1,cm,,WEEK 4,5,2025-10-07,28
STUDY001,VS,STUDY001-SUBJ0018,22,WEIGHT,Weight,77.7,kg,77.7,77.7,kg,,WEEK 4,5,2025-10-07,28
STUDY001,VS,STUDY001-SUBJ0018,23,TEMP,Temperature,37.2,C,37.2,37.2,C,,WEEK 4,5,2025-10-07,28
STUDY001,VS,STUDY001-SUBJ0018,24,BP,Blood Pressure,116/96,mmHg,116/96,,mmHg,,WEEK 4,5,2025-10-07,28
STUDY001,VS,STUDY001-SUBJ0018,25,HR,Heart Rate,92,beats/min,92,92.0,beats/min,,WEEK 4,5,2025-10-07,28
STUDY001,VS,STUDY001-SUBJ0018,26,HEIGHT,Height,189.9,cm,189.9,189.9,cm,,WEEK 8,6,2025-11-04,56
STUDY001,VS,STUDY001-SUBJ0018,27,WEIGHT,Weight,77.4,kg,77.4,77.4,kg,,WEEK 8,6,2025-11-04,56
STUDY001,VS,STUDY001-SUBJ0018,28,TEMP,Temperature,37.0,C,37.0,37.0,C,,WEEK 8,6,2025-11-04,56
STUDY001,VS,STUDY001-SUBJ0018,29,BP,Blood Pressure,119/98,mmHg,119/98,,mmHg,,WEEK 8,6,2025-11-04,56
STUDY001,VS,STUDY001-SUBJ0018,30,HR,Heart Rate,88,beats/min,88,88.0,beats/min,,WEEK 8,6,2025-11-04,56
STUDY001,VS,STUDY001-SUBJ0018,31,HEIGHT,Height,190.1,cm,190.1,190.1,cm,,WEEK 12,7,2025-12-02,84
STUDY001,VS,STUDY001-SUBJ0018,32,WEIGHT,Weight,78.1,kg,78.1,78.1,kg,,WEEK 12,7,2025-12-02,84
STUDY001,VS,STUDY001-SUBJ0018,33,TEMP,Temperature,36.9,C,36.9,36.9,C,,WEEK 12,7,2025-12-02,84
STUDY001,VS,STUDY001-SUBJ0018,34,BP,Blood Pressure,114/94,mmHg,114/94,,mmHg,,WEEK 12,7,2025-12-02,84
STUDY001,VS,STUDY001-SUBJ0018,35,HR,Heart Rate,86,beats/min,86,86.0,beats/min,,WEEK 12,7,2025-12-02,84
STUDY001,VS,STUDY001-SUBJ0018,36,HEIGHT,Height,190.2,cm,190.2,190.2,cm,,WEEK 16,8,2025-12-30,112
STUDY001,VS,STUDY001-SUBJ0018,37,WEIGHT,Weight,78.1,kg,78.1,78.1,kg,,WEEK 16,8,2025-12-30,112
STUDY001,VS,STUDY001-SUBJ0018,38,TEMP,Temperature,36.7,C,36.7,36.7,C,,WEEK 16,8,2025-12-30,112
STUDY001,VS,STUDY001-SUBJ0018,39,BP,Blood Pressure,112/102,mmHg,112/102,,mmHg,,WEEK 16,8,2025-12-30,112
STUDY001,VS,STUDY001-SUBJ0018,40,HR,Heart Rate,94,beats/min,94,94.0,beats/min,,WEEK 16,8,2025-12-30,112
STUDY001,VS,STUDY001-SUBJ0018,41,HEIGHT,Height,190.2,cm,190.2,190.2,cm,,END OF TREATMENT,9,2026-01-27,140
STUDY001,VS,STUDY001-SUBJ0018,42,WEIGHT,Weight,77.6,kg,77.6,77.6,kg,,END OF TREATMENT,9,2026-01-27,140
STUDY001,VS,STUDY001-SUBJ0018,43,TEMP,Temperature,36.9,C,36.9,36.9,C,,END OF TREATMENT,9,2026-01-27,140
STUDY001,VS,STUDY001-SUBJ0018,44,BP,Blood Pressure,115/93,mmHg,115/93,,mmHg,,END OF TREATMENT,9,2026-01-27,140
STUDY001,VS,STUDY001-SUBJ0018,45,HR,Heart Rate,92,beats/min,92,92.0,beats/min,,END OF TREATMENT,9,2026-01-27,140
STUDY001,VS,STUDY001-SUBJ0019,1,HEIGHT,Height,159.7,cm,159.7,159.7,cm,,SCREENING,1,2025-08-15,-14
STUDY001,VS,STUDY001-SUBJ0019,2,WEIGHT,Weight,65.1,kg,65.1,65.1,kg,,SCREENING,1,2025-08-15,-14
STUDY001,VS,STUDY001-SUBJ0019,3,TEMP,Temperature,36.6,C,36.6,36.6,C,,SCREENING,1,2025-08-15,-14
STUDY001,VS,STUDY001-SUBJ0019,4,BP,Blood Pressure,129/83,mmHg,129/83,,mmHg,,SCREENING,1,2025-08-15,-14
STUDY001,VS,STUDY001-SUBJ0019,5,HR,Heart Rate,89,beats/min,89,89.0,beats/min,,SCREENING,1,2025-08-15,-14
STUDY001,VS,STUDY001-SUBJ0019,6,HEIGHT,Height,159.7,cm,159.7,159.7,cm,Y,BASELINE,2,2025-08-29,1
STUDY001,VS,STUDY001-SUBJ0019,7,WEIGHT,Weight,64.7,kg,64.7,64.7,kg,Y,BASELINE,2,2025-08-29,1
STUDY001,VS,STUDY001-SUBJ0019,8,TEMP,Temperature,36.4,C,36.4,36.4,C,Y,BASELINE,2,2025-08-29,1
STUDY001,VS,STUDY001-SUBJ0019,9,BP,Blood Pressure,132/82,mmHg,132/82,,mmHg,Y,BASELINE,2,2025-08-29,1
STUDY001,VS,STUDY001-SUBJ0019,10,HR,Heart Rate,85,beats/min,85,85.0,beats/min,Y,BASELINE,2,2025-08-29,1
STUDY001,VS,STUDY001-SUBJ0019,11,HEIGHT,Height,159.5,cm,159.5,159.5,cm,,WEEK 1,3,2025-09-04,7
STUDY001,VS,STUDY001-SUBJ0019,12,WEIGHT,Weight,65.5,kg,65.5,65.5,kg,,WEEK 1,3,2025-09-04,7
STUDY001,VS,STUDY001-SUBJ0019,13,TEMP,Temperature,36.9,C,36.9,36.9,C,,WEEK 1,3,2025-09-04,7
STUDY001,VS,STUDY001-SUBJ0019,14,BP,Blood Pressure,131/88,mmHg,131/88,,mmHg,,WEEK 1,3,2025-09-04,7
STUDY001,VS,STUDY001-SUBJ0019,15,HR,Heart Rate,93,beats/min,93,93.0,beats/min,,WEEK 1,3,2025-09-04,7
STUDY001,VS,STUDY001-SUBJ0019,16,HEIGHT,Height,159.8,cm,159.8,159.8,cm,,WEEK 2,4,2025-09-11,14
STUDY001,VS,STUDY001-SUBJ0019,17,WEIGHT,Weight,64.5,kg,64.5,64.5,kg,,WEEK 2,4,2025-09-11,14
STUDY001,VS,STUDY001-SUBJ0019,18,TEMP,Temperature,36.6,C,36.6,36.6,C,,WEEK 2,4,2025-09-11,14
STUDY001,VS,STUDY001-SUBJ0019,19,BP,Blood Pressure,137/82,mmHg,137/82,,mmHg,,WEEK 2,4,2025-09-11,14
STUDY001,VS,STUDY001-SUBJ0019,20,HR,Heart Rate,87,beats/min,87,87.0,beats/min,,WEEK 2,4,2025-09-11,14
STUDY001,VS,STUDY001-SUBJ0019,21,HEIGHT,Height,159.6,cm,159.6,159.6,cm,,WEEK 4,5,2025-09-25,28
STUDY001,VS,STUDY001-SUBJ0019,22,WEIGHT,Weight,65.3,kg,65.3,65.3,kg,,WEEK 4,5,2025-09-25,28
STUDY001,VS,STUDY001-SUBJ0019,23,TEMP,Temperature,36.4,C,36.4,36.4,C,,WEEK 4,5,2025-09-25,28
STUDY001,VS,STUDY001-SUBJ0019,24,BP,Blood Pressure,137/88,mmHg,137/88,,mmHg,,WEEK 4,5,2025-09-25,28
STUDY001,VS,STUDY001-SUBJ0019,25,HR,Heart Rate,94,beats/min,94,94.0,beats/min,,WEEK 4,5,2025-09-25,28
STUDY001,VS,STUDY001-SUBJ0019,26,HEIGHT,Height,159.9,cm,159.9,159.9,cm,,WEEK 8,6,2025-10-23,56
STUDY001,VS,STUDY001-SUBJ0019,27,WEIGHT,Weight,64.7,kg,64.7,64.7,kg,,WEEK 8,6,2025-10-23,56
STUDY001,VS,STUDY001-SUBJ0019,28,TEMP,Temperature,36.8,C,36.8,36.8,C,,WEEK 8,6,2025-10-23,56
STUDY001,VS,STUDY001-SUBJ0019,29,BP,Blood Pressure,136/83,mmHg,136/83,,mmHg,,WEEK 8,6,2025-10-23,56
STUDY001,VS,STUDY001-SUBJ0019,30,HR,Heart Rate,90,beats/min,90,90.0,beats/min,,WEEK 8,6,2025-10-23,56
STUDY001,VS,STUDY001-SUBJ0019,31,HEIGHT,Height,159.5,cm,159.5,159.5,cm,,WEEK 12,7,2025-11-20,84
STUDY001,VS,STUDY001-SUBJ0019,32,WEIGHT,Weight,66.4,kg,66.4,66.4,kg,,WEEK 12,7,2025-11-20,84
STUDY001,VS,STUDY001-SUBJ0019,33,TEMP,Temperature,36.6,C,36.6,36.6,C,,WEEK 12,7,2025-11-20,84
STUDY001,VS,STUDY001-SUBJ0019,34,BP,Blood Pressure,134/86,mmHg,134/86,,mmHg,,WEEK 12,7,2025-11-20,84
STUDY001,VS,STUDY001-SUBJ0019,35,HR,Heart Rate,92,beats/min,92,92.0,beats/min,,WEEK 12,7,2025-11-20,84
STUDY001,VS,STUDY001-SUBJ0019,36,HEIGHT,Height,159.8,cm,159.8,159.8,cm,,WEEK 16,8,2025-12-18,112
STUDY001,VS,STUDY001-SUBJ0019,37,WEIGHT,Weight,64.7,kg,64.7,64.7,kg,,WEEK 16,8,2025-12-18,112
STUDY001,VS,STUDY001-SUBJ0019,38,TEMP,Temperature,36.5,C,36.5,36.5,C,,WEEK 16,8,2025-12-18,112
STUDY001,VS,STUDY001-SUBJ0019,39,BP,Blood Pressure,135/85,mmHg,135/85,,mmHg,,WEEK 16,8,2025-12-18,112
STUDY001,VS,STUDY001-SUBJ0019,40,HR,Heart Rate,89,beats/min,89,89.0,beats/min,,WEEK 16,8,2025-12-18,112
STUDY001,VS,STUDY001-SUBJ0019,41,HEIGHT,Height,159.5,cm,159.5,159.5,cm,,END OF TREATMENT,9,2026-01-15,140
STUDY001,VS,STUDY001-SUBJ0019,42,WEIGHT,Weight,65.9,kg,65.9,65.9,kg,,END OF TREATMENT,9,2026-01-15,140
STUDY001,VS,STUDY001-SUBJ0019,43,TEMP,Temperature,36.8,C,36.8,36.8,C,,END OF TREATMENT,9,2026-01-15,140
STUDY001,VS,STUDY001-SUBJ0019,44,BP,Blood Pressure,128/80,mmHg,128/80,,mmHg,,END OF TREATMENT,9,2026-01-15,140
STUDY001,VS,STUDY001-SUBJ0019,45,HR,Heart Rate,88,beats/min,88,88.0,beats/min,,END OF TREATMENT,9,2026-01-15,140
STUDY001,VS,STUDY001-SUBJ0020,1,HEIGHT,Height,159.9,cm,159.9,159.9,cm,,SCREENING,1,2024-12-22,-14
STUDY001,VS,STUDY001-SUBJ0020,2,WEIGHT,Weight,60.8,kg,60.8,60.8,kg,,SCREENING,1,2024-12-22,-14
STUDY001,VS,STUDY001-SUBJ0020,3,TEMP,Temperature,36.7,C,36.7,36.7,C,,SCREENING,1,2024-12-22,-14
STUDY001,VS,STUDY001-SUBJ0020,4,BP,Blood Pressure,100/94,mmHg,100/94,,mmHg,,SCREENING,1,2024-12-22,-14
STUDY001,VS,STUDY001-SUBJ0020,5,HR,Heart Rate,82,beats/min,82,82.0,beats/min,,SCREENING,1,2024-12-22,-14
STUDY001,VS,STUDY001-SUBJ0020,6,HEIGHT,Height,160.1,cm,160.1,160.1,cm,Y,BASELINE,2,2025-01-05,1
STUDY001,VS,STUDY001-SUBJ0020,7,WEIGHT,Weight,59.5,kg,59.5,59.5,kg,Y,BASELINE,2,2025-01-05,1
STUDY001,VS,STUDY001-SUBJ0020,8,TEMP,Temperature,36.4,C,36.4,36.4,C,Y,BASELINE,2,2025-01-05,1
STUDY001,VS,STUDY001-SUBJ0020,9,BP,Blood Pressure,97/93,mmHg,97/93,,mmHg,Y,BASELINE,2,2025-01-05,1
STUDY001,VS,STUDY001-SUBJ0020,10,HR,Heart Rate,87,beats/min,87,87.0,beats/min,Y,BASELINE,2,2025-01-05,1
STUDY001,VS,STUDY001-SUBJ0020,11,HEIGHT,Height,159.8,cm,159.8,159.8,cm,,WEEK 1,3,2025-01-11,7
STUDY001,VS,STUDY001-SUBJ0020,12,WEIGHT,Weight,59.7,kg,59.7,59.7,kg,,WEEK 1,3,2025-01-11,7
STUDY001,VS,STUDY001-SUBJ0020,13,TEMP,Temperature,36.4,C,36.4,36.4,C,,WEEK 1,3,2025-01-11,7
STUDY001,VS,STUDY001-SUBJ0020,14,BP,Blood Pressure,104/91,mmHg,104/91,,mmHg,,WEEK 1,3,2025-01-11,7
STUDY001,VS,STUDY001-SUBJ0020,15,HR,Heart Rate,81,beats/min,81,81.0,beats/min,,WEEK 1,3,2025-01-11,7
STUDY001,VS,STUDY001-SUBJ0020,16,HEIGHT,Height,159.9,cm,159.9,159.9,cm,,WEEK 2,4,2025-01-18,14
STUDY001,VS,STUDY001-SUBJ0020,17,WEIGHT,Weight,59.1,kg,59.1,59.1,kg,,WEEK 2,4,2025-01-18,14
STUDY001,VS,STUDY001-SUBJ0020,18,TEMP,Temperature,36.5,C,36.5,36.5,C,,WEEK 2,4,2025-01-18,14
STUDY001,VS,STUDY001-SUBJ0020,19,BP,Blood Pressure,100/93,mmHg,100/93,,mmHg,,WEEK 2,4,2025-01-18,14
STUDY001,VS,STUDY001-SUBJ0020,20,HR,Heart Rate,83,beats/min,83,83.0,beats/min,,WEEK 2,4,2025-01-18,14
STUDY001,VS,STUDY001-SUBJ0020,21,HEIGHT,Height,159.8,cm,159.8,159.8,cm,,WEEK 4,5,2025-02-01,28
STUDY001,VS,STUDY001-SUBJ0020,22,WEIGHT,Weight,59.8,kg,59.8,59.8,kg,,WEEK 4,5,2025-02-01,28
STUDY001,VS,STUDY001-SUBJ0020,23,TEMP,Temperature,36.5,C,36.5,36.5,C,,WEEK 4,5,2025-02-01,28
STUDY001,VS,STUDY001-SUBJ0020,24,BP,Blood Pressure,103/88,mmHg,103/88,,mmHg,,WEEK 4,5,2025-02-01,28
STUDY001,VS,STUDY001-SUBJ0020,25,HR,Heart Rate,83,beats/min,83,83.0,beats/min,,WEEK 4,5,2025-02-01,28
STUDY001,VS,STUDY001-SUBJ0020,26,HEIGHT,Height,159.9,cm,159.9,159.9,cm,,WEEK 8,6,2025-03-01,56
STUDY001,VS,STUDY001-SUBJ0020,27,WEIGHT,Weight,60.5,kg,60.5,60.5,kg,,WEEK 8,6,2025-03-01,56
STUDY001,VS,STUDY001-SUBJ0020,28,TEMP,Temperature,36.4,C,36.4,36.4,C,,WEEK 8,6,2025-03-01,56
STUDY001,VS,STUDY001-SUBJ0020,29,BP,Blood Pressure,103/93,mmHg,103/93,,mmHg,,WEEK 8,6,2025-03-01,56
STUDY001,VS,STUDY001-SUBJ0020,30,HR,Heart Rate,81,beats/min,81,81.0,beats/min,,WEEK 8,6,2025-03-01,56
STUDY001,VS,STUDY001-SUBJ0020,31,HEIGHT,Height,160.0,cm,160.0,160.0,cm,,WEEK 12,7,2025-03-29,84
STUDY001,VS,STUDY001-SUBJ0020,32,WEIGHT,Weight,60.7,kg,60.7,60.7,kg,,WEEK 12,7,2025-03-29,84
STUDY001,VS,STUDY001-SUBJ0020,33,TEMP,Temperature,36.6,C,36.6,36.6,C,,WEEK 12,7,2025-03-29,84
STUDY001,VS,STUDY001-SUBJ0020,34,BP,Blood Pressure,101/88,mmHg,101/88,,mmHg,,WEEK 12,7,2025-03-29,84
STUDY001,VS,STUDY001-SUBJ0020,35,HR,Heart Rate,85,beats/min,85,85.0,beats/min,,WEEK 12,7,2025-03-29,84
STUDY001,VS,STUDY001-SUBJ0020,36,HEIGHT,Height,159.8,cm,159.8,159.8,cm,,WEEK 16,8,2025-04-26,112
STUDY001,VS,STUDY001-SUBJ0020,37,WEIGHT,Weight,60.7,kg,60.7,60.7,kg,,WEEK 16,8,2025-04-26,112
STUDY001,VS,STUDY001-SUBJ0020,38,TEMP,Temperature,36.4,C,36.4,36.4,C,,WEEK 16,8,2025-04-26,112
STUDY001,VS,STUDY001-SUBJ0020,39,BP,Blood Pressure,106/89,mmHg,106/89,,mmHg,,WEEK 16,8,2025-04-26,112
STUDY001,VS,STUDY001-SUBJ0020,40,HR,Heart Rate,83,beats/min,83,83.0,beats/min,,WEEK 16,8,2025-04-26,112
STUDY001,VS,STUDY001-SUBJ0020,41,HEIGHT,Height,159.8,cm,159.8,159.8,cm,,END OF TREATMENT,9,2025-05-24,140
STUDY001,VS,STUDY001-SUBJ0020,42,WEIGHT,Weight,60.7,kg,60.7,60.7,kg,,END OF TREATMENT,9,2025-05-24,140
STUDY001,VS,STUDY001-SUBJ0020,43,TEMP,Temperature,36.6,C,36.6,36.6,C,,END OF TREATMENT,9,2025-05-24,140
STUDY001,VS,STUDY001-SUBJ0020,44,BP,Blood Pressure,105/90,mmHg,105/90,,mmHg,,END OF TREATMENT,9,2025-05-24,140
STUDY001,VS,STUDY001-SUBJ0020,45,HR,Heart Rate,86,beats/min,86,86.0,beats/min,,END OF TREATMENT,9,2025-05-24,140
STUDY001,VS,STUDY001-SUBJ0021,1,HEIGHT,Height,161.9,cm,161.9,161.9,cm,,SCREENING,1,2025-06-29,-14
STUDY001,VS,STUDY001-SUBJ0021,2,WEIGHT,Weight,107.4,kg,107.4,107.4,kg,,SCREENING,1,2025-06-29,-14
STUDY001,VS,STUDY001-SUBJ0021,3,TEMP,Temperature,36.3,C,36.3,36.3,C,,SCREENING,1,2025-06-29,-14
STUDY001,VS,STUDY001-SUBJ0021,4,BP,Blood Pressure,140/74,mmHg,140/74,,mmHg,,SCREENING,1,2025-06-29,-14
STUDY001,VS,STUDY001-SUBJ0021,5,HR,Heart Rate,64,beats/min,64,64.0,beats/min,,SCREENING,1,2025-06-29,-14
STUDY001,VS,STUDY001-SUBJ0021,6,HEIGHT,Height,161.7,cm,161.7,161.7,cm,Y,BASELINE,2,2025-07-13,1
STUDY001,VS,STUDY001-SUBJ0021,7,WEIGHT,Weight,105.7,kg,105.7,105.7,kg,Y,BASELINE,2,2025-07-13,1
STUDY001,VS,STUDY001-SUBJ0021,8,TEMP,Temperature,36.2,C,36.2,36.2,C,Y,BASELINE,2,2025-07-13,1
STUDY001,VS,STUDY001-SUBJ0021,9,BP,Blood Pressure,132/75,mmHg,132/75,,mmHg,Y,BASELINE,2,2025-07-13,1
STUDY001,VS,STUDY001-SUBJ0021,10,HR,Heart Rate,64,beats/min,64,64.0,beats/min,Y,BASELINE,2,2025-07-13,1
STUDY001,VS,STUDY001-SUBJ0021,11,HEIGHT,Height,161.8,cm,161.8,161.8,cm,,WEEK 1,3,2025-07-19,7
STUDY001,VS,STUDY001-SUBJ0021,12,WEIGHT,Weight,106.2,kg,106.2,106.2,kg,,WEEK 1,3,2025-07-19,7
STUDY001,VS,STUDY001-SUBJ0021,13,TEMP,Temperature,36.3,C,36.3,36.3,C,,WEEK 1,3,2025-07-19,7
STUDY001,VS,STUDY001-SUBJ0021,14,BP,Blood Pressure,131/74,mmHg,131/74,,mmHg,,WEEK 1,3,2025-07-19,7
STUDY001,VS,STUDY001-SUBJ0021,15,HR,Heart Rate,73,beats/min,73,73.0,beats/min,,WEEK 1,3,2025-07-19,7
STUDY001,VS,STUDY001-SUBJ0021,16,HEIGHT,Height,161.9,cm,161.9,161.9,cm,,WEEK 2,4,2025-07-26,14
STUDY001,VS,STUDY001-SUBJ0021,17,WEIGHT,Weight,107.3,kg,107.3,107.3,kg,,WEEK 2,4,2025-07-26,14
STUDY001,VS,STUDY001-SUBJ0021,18,TEMP,Temperature,36.5,C,36.5,36.5,C,,WEEK 2,4,2025-07-26,14
STUDY001,VS,STUDY001-SUBJ0021,19,BP,Blood Pressure,137/74,mmHg,137/74,,mmHg,,WEEK 2,4,2025-07-26,14
STUDY001,VS,STUDY001-SUBJ0021,20,HR,Heart Rate,67,beats/min,67,67.0,beats/min,,WEEK 2,4,2025-07-26,14
STUDY001,VS,STUDY001-SUBJ0021,21,HEIGHT,Height,162.0,cm,162.0,162.0,cm,,WEEK 4,5,2025-08-09,28
STUDY001,VS,STUDY001-SUBJ0021,22,WEIGHT,Weight,107.2,kg,107.2,107.2,kg,,WEEK 4,5,2025-08-09,28
STUDY001,VS,STUDY001-SUBJ0021,23,TEMP,Temperature,36.4,C,36.4,36.4,C,,WEEK 4,5,2025-08-09,28
STUDY001,VS,STUDY001-SUBJ0021,24,BP,Blood Pressure,139/76,mmHg,139/76,,mmHg,,WEEK 4,5,2025-08-09,28
STUDY001,VS,STUDY001-SUBJ0021,25,HR,Heart Rate,73,beats/min,73,73.0,beats/min,,WEEK 4,5,2025-08-09,28
STUDY001,VS,STUDY001-SUBJ0021,26,HEIGHT,Height,162.0,cm,162.0,162.0,cm,,WEEK 8,6,2025-09-06,56
STUDY001,VS,STUDY001-SUBJ0021,27,WEIGHT,Weight,105.9,kg,105.9,105.9,kg,,WEEK 8,6,2025-09-06,56
STUDY001,VS,STUDY001-SUBJ0021,28,TEMP,Temperature,36.5,C,36.5,36.5,C,,WEEK 8,6,2025-09-06,56
STUDY001,VS,STUDY001-SUBJ0021,29,BP,Blood Pressure,139/66,mmHg,139/66,,mmHg,,WEEK 8,6,2025-09-06,56
STUDY001,VS,STUDY001-SUBJ0021,30,HR,Heart Rate,65,beats/min,65,65.0,beats/min,,WEEK 8,6,2025-09-06,56
STUDY001,VS,STUDY001-SUBJ0021,31,HEIGHT,Height,162.1,cm,162.1,162.1,cm,,WEEK 12,7,2025-10-04,84
STUDY001,VS,STUDY001-SUBJ0021,32,WEIGHT,Weight,106.1,kg,106.1,106.1,kg,,WEEK 12,7,2025-10-04,84
STUDY001,VS,STUDY001-SUBJ0021,33,TEMP,Temperature,36.1,C,36.1,36.1,C,,WEEK 12,7,2025-10-04,84
STUDY001,VS,STUDY001-SUBJ0021,34,BP,Blood Pressure,134/67,mmHg,134/67,,mmHg,,WEEK 12,7,2025-10-04,84
STUDY001,VS,STUDY001-SUBJ0021,35,HR,Heart Rate,64,beats/min,64,64.0,beats/min,,WEEK 12,7,2025-10-04,84
STUDY001,VS,STUDY001-SUBJ0021,36,HEIGHT,Height,162.1,cm,162.1,162.1,cm,,WEEK 16,8,2025-11-01,112
STUDY001,VS,STUDY001-SUBJ0021,37,WEIGHT,Weight,105.7,kg,105.7,105.7,kg,,WEEK 16,8,2025-11-01,112
STUDY001,VS,STUDY001-SUBJ0021,38,TEMP,Temperature,36.3,C,36.3,36.3,C,,WEEK 16,8,2025-11-01,112
STUDY001,VS,STUDY001-SUBJ0021,39,BP,Blood Pressure,136/71,mmHg,136/71,,mmHg,,WEEK 16,8,2025-11-01,112
STUDY001,VS,STUDY001-SUBJ0021,40,HR,Heart Rate,65,beats/min,65,65.0,beats/min,,WEEK 16,8,2025-11-01,112
STUDY001,VS,STUDY001-SUBJ0021,41,HEIGHT,Height,161.8,cm,161.8,161.8,cm,,END OF TREATMENT,9,2025-11-29,140
STUDY001,VS,STUDY001-SUBJ0021,42,WEIGHT,Weight,107.0,kg,107.0,107.0,kg,,END OF TREATMENT,9,2025-11-29,140
STUDY001,VS,STUDY001-SUBJ0021,43,TEMP,Temperature,36.3,C,36.3,36.3,C,,END OF TREATMENT,9,2025-11-29,140
STUDY001,VS,STUDY001-SUBJ0021,44,BP,Blood Pressure,133/75,mmHg,133/75,,mmHg,,END OF TREATMENT,9,2025-11-29,140
STUDY001,VS,STUDY001-SUBJ0021,45,HR,Heart Rate,70,beats/min,70,70.0,beats/min,,END OF TREATMENT,9,2025-11-29,140
STUDY001,VS,STUDY001-SUBJ0022,1,HEIGHT,Height,160.0,cm,160.0,160.0,cm,,SCREENING,1,2025-07-18,-14
STUDY001,VS,STUDY001-SUBJ0022,2,WEIGHT,Weight,61.5,kg,61.5,61.5,kg,,SCREENING,1,2025-07-18,-14
STUDY001,VS,STUDY001-SUBJ0022,3,TEMP,Temperature,36.4,C,36.4,36.4,C,,SCREENING,1,2025-07-18,-14
STUDY001,VS,STUDY001-SUBJ0022,4,BP,Blood Pressure,120/93,mmHg,120/93,,mmHg,,SCREENING,1,2025-07-18,-14
STUDY001,VS,STUDY001-SUBJ0022,5,HR,Heart Rate,65,beats/min,65,65.0,beats/min,,SCREENING,1,2025-07-18,-14
STUDY001,VS,STUDY001-SUBJ0022,6,HEIGHT,Height,160.1,cm,160.1,160.1,cm,Y,BASELINE,2,2025-08-01,1
STUDY001,VS,STUDY001-SUBJ0022,7,WEIGHT,Weight,62.6,kg,62.6,62.6,kg,Y,BASELINE,2,2025-08-01,1
STUDY001,VS,STUDY001-SUBJ0022,8,TEMP,Temperature,36.7,C,36.7,36.7,C,Y,BASELINE,2,2025-08-01,1
STUDY001,VS,STUDY001-SUBJ0022,9,BP,Blood Pressure,119/92,mmHg,119/92,,mmHg,Y,BASELINE,2,2025-08-01,1
STUDY001,VS,STUDY001-SUBJ0022,10,HR,Heart Rate,64,beats/min,64,64.0,beats/min,Y,BASELINE,2,2025-08-01,1
STUDY001,VS,STUDY001-SUBJ0022,11,HEIGHT,Height,159.9,cm,159.9,159.9,cm,,WEEK 1,3,2025-08-07,7
STUDY001,VS,STUDY001-SUBJ0022,12,WEIGHT,Weight,62.0,kg,62.0,62.0,kg,,WEEK 1,3,2025-08-07,7
STUDY001,VS,STUDY001-SUBJ0022,13,TEMP,Temperature,36.5,C,36.5,36.5,C,,WEEK 1,3,2025-08-07,7
STUDY001,VS,STUDY001-SUBJ0022,14,BP,Blood Pressure,120/94,mmHg,120/94,,mmHg,,WEEK 1,3,2025-08-07,7
STUDY001,VS,STUDY001-SUBJ0022,15,HR,Heart Rate,68,beats/min,68,68.0,beats/min,,WEEK 1,3,2025-08-07,7
STUDY001,VS,STUDY001-SUBJ0022,16,HEIGHT,Height,160.0,cm,160.0,160.0,cm,,WEEK 2,4,2025-08-14,14
STUDY001,VS,STUDY001-SUBJ0022,17,WEIGHT,Weight,62.1,kg,62.1,62.1,kg,,WEEK 2,4,2025-08-14,14
STUDY001,VS,STUDY001-SUBJ0022,18,TEMP,Temperature,36.9,C,36.9,36.9,C,,WEEK 2,4,2025-08-14,14
STUDY001,VS,STUDY001-SUBJ0022,19,BP,Blood Pressure,121/92,mmHg,121/92,,mmHg,,WEEK 2,4,2025-08-14,14
STUDY001,VS,STUDY001-SUBJ0022,20,HR,Heart Rate,64,beats/min,64,64.0,beats/min,,WEEK 2,4,2025-08-14,14
STUDY001,VS,STUDY001-SUBJ0022,21,HEIGHT,Height,160.0,cm,160.0,160.0,cm,,WEEK 4,5,2025-08-28,28
STUDY001,VS,STUDY001-SUBJ0022,22,WEIGHT,Weight,61.9,kg,61.9,61.9,kg,,WEEK 4,5,2025-08-28,28
STUDY001,VS,STUDY001-SUBJ0022,23,TEMP,Temperature,36.5,C,36.5,36.5,C,,WEEK 4,5,2025-08-28,28
STUDY001,VS,STUDY001-SUBJ0022,24,BP,Blood Pressure,124/86,mmHg,124/86,,mmHg,,WEEK 4,5,2025-08-28,28
STUDY001,VS,STUDY001-SUBJ0022,25,HR,Heart Rate,64,beats/min,64,64.0,beats/min,,WEEK 4,5,2025-08-28,28
STUDY001,VS,STUDY001-SUBJ0022,26,HEIGHT,Height,159.9,cm,159.9,159.9,cm,,WEEK 8,6,2025-09-25,56
STUDY001,VS,STUDY001-SUBJ0022,27,WEIGHT,Weight,61.6,kg,61.6,61.6,kg,,WEEK 8,6,2025-09-25,56
STUDY001,VS,STUDY001-SUBJ0022,28,TEMP,Temperature,36.8,C,36.8,36.8,C,,WEEK 8,6,2025-09-25,56
STUDY001,VS,STUDY001-SUBJ0022,29,BP,Blood Pressure,117/88,mmHg,117/88,,mmHg,,WEEK 8,6,2025-09-25,56
STUDY001,VS,STUDY001-SUBJ0022,30,HR,Heart Rate,69,beats/min,69,69.0,beats/min,,WEEK 8,6,2025-09-25,56
STUDY001,VS,STUDY001-SUBJ0022,31,HEIGHT,Height,160.0,cm,160.0,160.0,cm,,WEEK 12,7,2025-10-23,84
STUDY001,VS,STUDY001-SUBJ0022,32,WEIGHT,Weight,62.8,kg,62.8,62.8,kg,,WEEK 12,7,2025-10-23,84
STUDY001,VS,STUDY001-SUBJ0022,33,TEMP,Temperature,36.6,C,36.6,36.6,C,,WEEK 12,7,2025-10-23,84
STUDY001,VS,STUDY001-SUBJ0022,34,BP,Blood Pressure,123/89,mmHg,123/89,,mmHg,,WEEK 12,7,2025-10-23,84
STUDY001,VS,STUDY001-SUBJ0022,35,HR,Heart Rate,67,beats/min,67,67.0,beats/min,,WEEK 12,7,2025-10-23,84
STUDY001,VS,STUDY001-SUBJ0022,36,HEIGHT,Height,159.9,cm,159.9,159.9,cm,,WEEK 16,8,2025-11-20,112
STUDY001,VS,STUDY001-SUBJ0022,37,WEIGHT,Weight,63.3,kg,63.3,63.3,kg,,WEEK 16,8,2025-11-20,112
STUDY001,VS,STUDY001-SUBJ0022,38,TEMP,Temperature,36.5,C,36.5,36.5,C,,WEEK 16,8,2025-11-20,112
STUDY001,VS,STUDY001-SUBJ0022,39,BP,Blood Pressure,124/85,mmHg,124/85,,mmHg,,WEEK 16,8,2025-11-20,112
STUDY001,VS,STUDY001-SUBJ0022,40,HR,Heart Rate,66,beats/min,66,66.0,beats/min,,WEEK 16,8,2025-11-20,112
STUDY001,VS,STUDY001-SUBJ0022,41,HEIGHT,Height,160.0,cm,160.0,160.0,cm,,END OF TREATMENT,9,2025-12-18,140
STUDY001,VS,STUDY001-SUBJ0022,42,WEIGHT,Weight,61.9,kg,61.9,61.9,kg,,END OF TREATMENT,9,2025-12-18,140
STUDY001,VS,STUDY001-SUBJ0022,43,TEMP,Temperature,36.6,C,36.6,36.6,C,,END OF TREATMENT,9,2025-12-18,140
STUDY001,VS,STUDY001-SUBJ0022,44,BP,Blood Pressure,124/92,mmHg,124/92,,mmHg,,END OF TREATMENT,9,2025-12-18,140
STUDY001,VS,STUDY001-SUBJ0022,45,HR,Heart Rate,68,beats/min,68,68.0,beats/min,,END OF TREATMENT,9,2025-12-18,140
STUDY001,VS,STUDY001-SUBJ0023,1,HEIGHT,Height,167.2,cm,167.2,167.2,cm,,SCREENING,1,2024-11-23,-14
STUDY001,VS,STUDY001-SUBJ0023,2,WEIGHT,Weight,89.7,kg,89.7,89.7,kg,,SCREENING,1,2024-11-23,-14
STUDY001,VS,STUDY001-SUBJ0023,3,TEMP,Temperature,36.1,C,36.1,36.1,C,,SCREENING,1,2024-11-23,-14
STUDY001,VS,STUDY001-SUBJ0023,4,BP,Blood Pressure,150/84,mmHg,150/84,,mmHg,,SCREENING,1,2024-11-23,-14
STUDY001,VS,STUDY001-SUBJ0023,5,HR,Heart Rate,85,beats/min,85,85.0,beats/min,,SCREENING,1,2024-11-23,-14
STUDY001,VS,STUDY001-SUBJ0023,6,HEIGHT,Height,167.2,cm,167.2,167.2,cm,Y,BASELINE,2,2024-12-07,1
STUDY001,VS,STUDY001-SUBJ0023,7,WEIGHT,Weight,89.8,kg,89.8,89.8,kg,Y,BASELINE,2,2024-12-07,1
STUDY001,VS,STUDY001-SUBJ0023,8,TEMP,Temperature,36.5,C,36.5,36.5,C,Y,BASELINE,2,2024-12-07,1
STUDY001,VS,STUDY001-SUBJ0023,9,BP,Blood Pressure,150/88,mmHg,150/88,,mmHg,Y,BASELINE,2,2024-12-07,1
STUDY001,VS,STUDY001-SUBJ0023,10,HR,Heart Rate,84,beats/min,84,84.0,beats/min,Y,BASELINE,2,2024-12-07,1
STUDY001,VS,STUDY001-SUBJ0023,11,HEIGHT,Height,167.3,cm,167.3,167.3,cm,,WEEK 1,3,2024-12-13,7
STUDY001,VS,STUDY001-SUBJ0023,12,WEIGHT,Weight,90.0,kg,90.0,90.0,kg,,WEEK 1,3,2024-12-13,7
STUDY001,VS,STUDY001-SUBJ0023,13,TEMP,Temperature,36.5,C,36.5,36.5,C,,WEEK 1,3,2024-12-13,7
STUDY001,VS,STUDY001-SUBJ0023,14,BP,Blood Pressure,146/85,mmHg,146/85,,mmHg,,WEEK 1,3,2024-12-13,7
STUDY001,VS,STUDY001-SUBJ0023,15,HR,Heart Rate,84,beats/min,84,84.0,beats/min,,WEEK 1,3,2024-12-13,7
STUDY001,VS,STUDY001-SUBJ0023,16,HEIGHT,Height,167.3,cm,167.3,167.3,cm,,WEEK 2,4,2024-12-20,14
STUDY001,VS,STUDY001-SUBJ0023,17,WEIGHT,Weight,90.0,kg,90.0,90.0,kg,,WEEK 2,4,2024-12-20,14
STUDY001,VS,STUDY001-SUBJ0023,18,TEMP,Temperature,36.0,C,36.0,36.0,C,,WEEK 2,4,2024-12-20,14
STUDY001,VS,STUDY001-SUBJ0023,19,BP,Blood Pressure,150/86,mmHg,150/86,,mmHg,,WEEK 2,4,2024-12-20,14
STUDY001,VS,STUDY001-SUBJ0023,20,HR,Heart Rate,81,beats/min,81,81.0,beats/min,,WEEK 2,4,2024-12-20,14
STUDY001,VS,STUDY001-SUBJ0023,21,HEIGHT,Height,167.2,cm,167.2,167.2,cm,,WEEK 4,5,2025-01-03,28
STUDY001,VS,STUDY001-SUBJ0023,22,WEIGHT,Weight,89.4,kg,89.4,89.4,kg,,WEEK 4,5,2025-01-03,28
STUDY001,VS,STUDY001-SUBJ0023,23,TEMP,Temperature,36.2,C,36.2,36.2,C,,WEEK 4,5,2025-01-03,28
STUDY001,VS,STUDY001-SUBJ0023,24,BP,Blood Pressure,146/86,mmHg,146/86,,mmHg,,WEEK 4,5,2025-01-03,28
STUDY001,VS,STUDY001-SUBJ0023,25,HR,Heart Rate,85,beats/min,85,85.0,beats/min,,WEEK 4,5,2025-01-03,28
STUDY001,VS,STUDY001-SUBJ0023,26,HEIGHT,Height,167.3,cm,167.3,167.3,cm,,WEEK 8,6,2025-01-31,56
STUDY001,VS,STUDY001-SUBJ0023,27,WEIGHT,Weight,91.3,kg,91.3,91.3,kg,,WEEK 8,6,2025-01-31,56
STUDY001,VS,STUDY001-SUBJ0023,28,TEMP,Temperature,36.0,C,36.0,36.0,C,,WEEK 8,6,2025-01-31,56
STUDY001,VS,STUDY001-SUBJ0023,29,BP,Blood Pressure,144/91,mmHg,144/91,,mmHg,,WEEK 8,6,2025-01-31,56
STUDY001,VS,STUDY001-SUBJ0023,30,HR,Heart Rate,78,beats/min,78,78.0,beats/min,,WEEK 8,6,2025-01-31,56
STUDY001,VS,STUDY001-SUBJ0023,31,HEIGHT,Height,167.0,cm,167.0,167.0,cm,,WEEK 12,7,2025-02-28,84
STUDY001,VS,STUDY001-SUBJ0023,32,WEIGHT,Weight,90.5,kg,90.5,90.5,kg,,WEEK 12,7,2025-02-28,84
STUDY001,VS,STUDY001-SUBJ0023,33,TEMP,Temperature,36.5,C,36.5,36.5,C,,WEEK 12,7,2025-02-28,84
STUDY001,VS,STUDY001-SUBJ0023,34,BP,Blood Pressure,151/84,mmHg,151/84,,mmHg,,WEEK 12,7,2025-02-28,84
STUDY001,VS,STUDY001-SUBJ0023,35,HR,Heart Rate,84,beats/min,84,84.0,beats/min,,WEEK 12,7,2025-02-28,84
STUDY001,VS,STUDY001-SUBJ0023,36,HEIGHT,Height,167.0,cm,167.0,167.0,cm,,WEEK 16,8,2025-03-28,112
STUDY001,VS,STUDY001-SUBJ0023,37,WEIGHT,Weight,90.8,kg,90.8,90.8,kg,,WEEK 16,8,2025-03-28,112
STUDY001,VS,STUDY001-SUBJ0023,38,TEMP,Temperature,36.2,C,36.2,36.2,C,,WEEK 16,8,2025-03-28,112
STUDY001,VS,STUDY001-SUBJ0023,39,BP,Blood Pressure,145/88,mmHg,145/88,,mmHg,,WEEK 16,8,2025-03-28,112
STUDY001,VS,STUDY001-SUBJ0023,40,HR,Heart Rate,87,beats/min,87,87.0,beats/min,,WEEK 16,8,2025-03-28,112
STUDY001,VS,STUDY001-SUBJ0023,41,HEIGHT,Height,167.0,cm,167.0,167.0,cm,,END OF TREATMENT,9,2025-04-25,140
STUDY001,VS,STUDY001-SUBJ0023,42,WEIGHT,Weight,90.4,kg,90.4,90.4,kg,,END OF TREATMENT,9,2025-04-25,140
STUDY001,VS,STUDY001-SUBJ0023,43,TEMP,Temperature,36.2,C,36.2,36.2,C,,END OF TREATMENT,9,2025-04-25,140
STUDY001,VS,STUDY001-SUBJ0023,44,BP,Blood Pressure,148/88,mmHg,148/88,,mmHg,,END OF TREATMENT,9,2025-04-25,140
STUDY001,VS,STUDY001-SUBJ0023,45,HR,Heart Rate,84,beats/min,84,84.0,beats/min,,END OF TREATMENT,9,2025-04-25,140
STUDY001,VS,STUDY001-SUBJ0024,1,HEIGHT,Height,151.7,cm,151.7,151.7,cm,,SCREENING,1,2025-07-04,-14
STUDY001,VS,STUDY001-SUBJ0024,2,WEIGHT,Weight,117.7,kg,117.7,117.7,kg,,SCREENING,1,2025-07-04,-14
STUDY001,VS,STUDY001-SUBJ0024,3,TEMP,Temperature,36.1,C,36.1,36.1,C,,SCREENING,1,2025-07-04,-14
STUDY001,VS,STUDY001-SUBJ0024,4,BP,Blood Pressure,114/84,mmHg,114/84,,mmHg,,SCREENING,1,2025-07-04,-14
STUDY001,VS,STUDY001-SUBJ0024,5,HR,Heart Rate,61,beats/min,61,61.0,beats/min,,SCREENING,1,2025-07-04,-14
STUDY001,VS,STUDY001-SUBJ0024,6,HEIGHT,Height,151.8,cm,151.8,151.8,cm,Y,BASELINE,2,2025-07-18,1
STUDY001,VS,STUDY001-SUBJ0024,7,WEIGHT,Weight,116.9,kg,116.9,116.9,kg,Y,BASELINE,2,2025-07-18,1
STUDY001,VS,STUDY001-SUBJ0024,8,TEMP,Temperature,36.0,C,36.0,36.0,C,Y,BASELINE,2,2025-07-18,1
STUDY001,VS,STUDY001-SUBJ0024,9,BP,Blood Pressure,111/82,mmHg,111/82,,mmHg,Y,BASELINE,2,2025-07-18,1
STUDY001,VS,STUDY001-SUBJ0024,10,HR,Heart Rate,67,beats/min,67,67.0,beats/min,Y,BASELINE,2,2025-07-18,1
STUDY001,VS,STUDY001-SUBJ0024,11,HEIGHT,Height,151.7,cm,151.7,151.7,cm,,WEEK 1,3,2025-07-24,7
STUDY001,VS,STUDY001-SUBJ0024,12,WEIGHT,Weight,117.7,kg,117.7,117.7,kg,,WEEK 1,3,2025-07-24,7
STUDY001,VS,STUDY001-SUBJ0024,13,TEMP,Temperature,36.6,C,36.6,36.6,C,,WEEK 1,3,2025-07-24,7
STUDY001,VS,STUDY001-SUBJ0024,14,BP,Blood Pressure,113/81,mmHg,113/81,,mmHg,,WEEK 1,3,2025-07-24,7
STUDY001,VS,STUDY001-SUBJ0024,15,HR,Heart Rate,68,beats/min,68,68.0,beats/min,,WEEK 1,3,2025-07-24,7
STUDY001,VS,STUDY001-SUBJ0024,16,HEIGHT,Height,151.7,cm,151.7,151.7,cm,,WEEK 2,4,2025-07-31,14
STUDY001,VS,STUDY001-SUBJ0024,17,WEIGHT,Weight,116.9,kg,116.9,116.9,kg,,WEEK 2,4,2025-07-31,14
STUDY001,VS,STUDY001-SUBJ0024,18,TEMP,Temperature,36.5,C,36.5,36.5,C,,WEEK 2,4,2025-07-31,14
STUDY001,VS,STUDY001-SUBJ0024,19,BP,Blood Pressure,113/79,mmHg,113/79,,mmHg,,WEEK 2,4,2025-07-31,14
STUDY001,VS,STUDY001-SUBJ0024,20,HR,Heart Rate,61,beats/min,61,61.0,beats/min,,WEEK 2,4,2025-07-31,14
STUDY001,VS,STUDY001-SUBJ0024,21,HEIGHT,Height,151.6,cm,151.6,151.6,cm,,WEEK 4,5,2025-08-14,28
STUDY001,VS,STUDY001-SUBJ0024,22,WEIGHT,Weight,116.4,kg,116.4,116.4,kg,,WEEK 4,5,2025-08-14,28
STUDY001,VS,STUDY001-SUBJ0024,23,TEMP,Temperature,36.3,C,36.3,36.3,C,,WEEK 4,5,2025-08-14,28
STUDY001,VS,STUDY001-SUBJ0024,24,BP,Blood Pressure,112/89,mmHg,112/89,,mmHg,,WEEK 4,5,2025-08-14,28
STUDY001,VS,STUDY001-SUBJ0024,25,HR,Heart Rate,62,beats/min,62,62.0,beats/min,,WEEK 4,5,2025-08-14,28
STUDY001,VS,STUDY001-SUBJ0024,26,HEIGHT,Height,151.7,cm,151.7,151.7,cm,,WEEK 8,6,2025-09-11,56
STUDY001,VS,STUDY001-SUBJ0024,27,WEIGHT,Weight,117.1,kg,117.1,117.1,kg,,WEEK 8,6,2025-09-11,56
STUDY001,VS,STUDY001-SUBJ0024,28,TEMP,Temperature,36.1,C,36.1,36.1,C,,WEEK 8,6,2025-09-11,56
STUDY001,VS,STUDY001-SUBJ0024,29,BP,Blood Pressure,110/88,mmHg,110/88,,mmHg,,WEEK 8,6,2025-09-11,56
STUDY001,VS,STUDY001-SUBJ0024,30,HR,Heart Rate,67,beats/min,67,67.0,beats/min,,WEEK 8,6,2025-09-11,56
STUDY001,VS,STUDY001-SUBJ0024,31,HEIGHT,Height,151.5,cm,151.5,151.5,cm,,WEEK 12,7,2025-10-09,84
STUDY001,VS,STUDY001-SUBJ0024,32,WEIGHT,Weight,117.4,kg,117.4,117.4,kg,,WEEK 12,7,2025-10-09,84
STUDY001,VS,STUDY001-SUBJ0024,33,TEMP,Temperature,36.1,C,36.1,36.1,C,,WEEK 12,7,2025-10-09,84
STUDY001,VS,STUDY001-SUBJ0024,34,BP,Blood Pressure,116/88,mmHg,116/88,,mmHg,,WEEK 12,7,2025-10-09,84
STUDY001,VS,STUDY001-SUBJ0024,35,HR,Heart Rate,60,beats/min,60,60.0,beats/min,,WEEK 12,7,2025-10-09,84
STUDY001,VS,STUDY001-SUBJ0024,36,HEIGHT,Height,151.5,cm,151.5,151.5,cm,,WEEK 16,8,2025-11-06,112
STUDY001,VS,STUDY001-SUBJ0024,37,WEIGHT,Weight,117.1,kg,117.1,117.1,kg,,WEEK 16,8,2025-11-06,112
STUDY001,VS,STUDY001-SUBJ0024,38,TEMP,Temperature,36.4,C,36.4,36.4,C,,WEEK 16,8,2025-11-06,112
STUDY001,VS,STUDY001-SUBJ0024,39,BP,Blood Pressure,113/80,mmHg,113/80,,mmHg,,WEEK 16,8,2025-11-06,112
STUDY001,VS,STUDY001-SUBJ0024,40,HR,Heart Rate,62,beats/min,62,62.0,beats/min,,WEEK 16,8,2025-11-06,112
STUDY001,VS,STUDY001-SUBJ0024,41,HEIGHT,Height,151.5,cm,151.5,151.5,cm,,END OF TREATMENT,9,2025-12-04,140
STUDY001,VS,STUDY001-SUBJ0024,42,WEIGHT,Weight,117.8,kg,117.8,117.8,kg,,END OF TREATMENT,9,2025-12-04,140
STUDY001,VS,STUDY001-SUBJ0024,43,TEMP,Temperature,36.1,C,36.1,36.1,C,,END OF TREATMENT,9,2025-12-04,140
STUDY001,VS,STUDY001-SUBJ0024,44,BP,Blood Pressure,112/80,mmHg,112/80,,mmHg,,END OF TREATMENT,9,2025-12-04,140
STUDY001,VS,STUDY001-SUBJ0024,45,HR,Heart Rate,61,beats/min,61,61.0,beats/min,,END OF TREATMENT,9,2025-12-04,140
STUDY001,VS,STUDY001-SUBJ0025,1,HEIGHT,Height,193.9,cm,193.9,193.9,cm,,SCREENING,1,2024-11-10,-14
STUDY001,VS,STUDY001-SUBJ0025,2,WEIGHT,Weight,71.5,kg,71.5,71.5,kg,,SCREENING,1,2024-11-10,-14
STUDY001,VS,STUDY001-SUBJ0025,3,TEMP,Temperature,36.5,C,36.5,36.5,C,,SCREENING,1,2024-11-10,-14
STUDY001,VS,STUDY001-SUBJ0025,4,BP,Blood Pressure,108/101,mmHg,108/101,,mmHg,,SCREENING,1,2024-11-10,-14
STUDY001,VS,STUDY001-SUBJ0025,5,HR,Heart Rate,57,beats/min,57,57.0,beats/min,,SCREENING,1,2024-11-10,-14
STUDY001,VS,STUDY001-SUBJ0025,6,HEIGHT,Height,193.8,cm,193.8,193.8,cm,Y,BASELINE,2,2024-11-24,1
STUDY001,VS,STUDY001-SUBJ0025,7,WEIGHT,Weight,72.3,kg,72.3,72.3,kg,Y,BASELINE,2,2024-11-24,1
STUDY001,VS,STUDY001-SUBJ0025,8,TEMP,Temperature,36.6,C,36.6,36.6,C,Y,BASELINE,2,2024-11-24,1
STUDY001,VS,STUDY001-SUBJ0025,9,BP,Blood Pressure,103/97,mmHg,103/97,,mmHg,Y,BASELINE,2,2024-11-24,1
STUDY001,VS,STUDY001-SUBJ0025,10,HR,Heart Rate,61,beats/min,61,61.0,beats/min,Y,BASELINE,2,2024-11-24,1
STUDY001,VS,STUDY001-SUBJ0025,11,HEIGHT,Height,194.0,cm,194.0,194.0,cm,,WEEK 1,3,2024-11-30,7
STUDY001,VS,STUDY001-SUBJ0025,12,WEIGHT,Weight,71.6,kg,71.6,71.6,kg,,WEEK 1,3,2024-11-30,7
STUDY001,VS,STUDY001-SUBJ0025,13,TEMP,Temperature,36.5,C,36.5,36.5,C,,WEEK 1,3,2024-11-30,7
STUDY001,VS,STUDY001-SUBJ0025,14,BP,Blood Pressure,106/100,mmHg,106/100,,mmHg,,WEEK 1,3,2024-11-30,7
STUDY001,VS,STUDY001-SUBJ0025,15,HR,Heart Rate,65,beats/min,65,65.0,beats/min,,WEEK 1,3,2024-11-30,7
STUDY001,VS,STUDY001-SUBJ0025,16,HEIGHT,Height,194.0,cm,194.0,194.0,cm,,WEEK 2,4,2024-12-07,14
STUDY001,VS,STUDY001-SUBJ0025,17,WEIGHT,Weight,71.9,kg,71.9,71.9,kg,,WEEK 2,4,2024-12-07,14
STUDY001,VS,STUDY001-SUBJ0025,18,TEMP,Temperature,36.5,C,36.5,36.5,C,,WEEK 2,4,2024-12-07,14
STUDY001,VS,STUDY001-SUBJ0025,19,BP,Blood Pressure,103/96,mmHg,103/96,,mmHg,,WEEK 2,4,2024-12-07,14
STUDY001,VS,STUDY001-SUBJ0025,20,HR,Heart Rate,58,beats/min,58,58.0,beats/min,,WEEK 2,4,2024-12-07,14
STUDY001,VS,STUDY001-SUBJ0025,21,HEIGHT,Height,193.7,cm,193.7,193.7,cm,,WEEK 4,5,2024-12-21,28
STUDY001,VS,STUDY001-SUBJ0025,22,WEIGHT,Weight,71.8,kg,71.8,71.8,kg,,WEEK 4,5,2024-12-21,28
STUDY001,VS,STUDY001-SUBJ0025,23,TEMP,Temperature,36.6,C,36.6,36.6,C,,WEEK 4,5,2024-12-21,28
STUDY001,VS,STUDY001-SUBJ0025,24,BP,Blood Pressure,105/101,mmHg,105/101,,mmHg,,WEEK 4,5,2024-12-21,28
STUDY001,VS,STUDY001-SUBJ0025,25,HR,Heart Rate,63,beats/min,63,63.0,beats/min,,WEEK 4,5,2024-12-21,28
STUDY001,VS,STUDY001-SUBJ0025,26,HEIGHT,Height,194.1,cm,194.1,194.1,cm,,WEEK 8,6,2025-01-18,56
STUDY001,VS,STUDY001-SUBJ0025,27,WEIGHT,Weight,71.5,kg,71.5,71.5,kg,,WEEK 8,6,2025-01-18,56
STUDY001,VS,STUDY001-SUBJ0025,28,TEMP,Temperature,36.7,C,36.7,36.7,C,,WEEK 8,6,2025-01-18,56
STUDY001,VS,STUDY001-SUBJ0025,29,BP,Blood Pressure,107/94,mmHg,107/94,,mmHg,,WEEK 8,6,2025-01-18,56
STUDY001,VS,STUDY001-SUBJ0025,30,HR,Heart Rate,64,beats/min,64,64.0,beats/min,,WEEK 8,6,2025-01-18,56
STUDY001,VS,STUDY001-SUBJ0025,31,HEIGHT,Height,193.9,cm,193.9,193.9,cm,,WEEK 12,7,2025-02-15,84
STUDY001,VS,STUDY001-SUBJ0025,32,WEIGHT,Weight,72.2,kg,72.2,72.2,kg,,WEEK 12,7,2025-02-15,84
STUDY001,VS,STUDY001-SUBJ0025,33,TEMP,Temperature,36.9,C,36.9,36.9,C,,WEEK 12,7,2025-02-15,84
STUDY001,VS,STUDY001-SUBJ0025,34,BP,Blood Pressure,112/101,mmHg,112/101,,mmHg,,WEEK 12,7,2025-02-15,84
STUDY001,VS,STUDY001-SUBJ0025,35,HR,Heart Rate,63,beats/min,63,63.0,beats/min,,WEEK 12,7,2025-02-15,84
STUDY001,VS,STUDY001-SUBJ0025,36,HEIGHT,Height,193.9,cm,193.9,193.9,cm,,WEEK 16,8,2025-03-15,112
STUDY001,VS,STUDY001-SUBJ0025,37,WEIGHT,Weight,72.0,kg,72.0,72.0,kg,,WEEK 16,8,2025-03-15,112
STUDY001,VS,STUDY001-SUBJ0025,38,TEMP,Temperature,36.9,C,36.9,36.9,C,,WEEK 16,8,2025-03-15,112
STUDY001,VS,STUDY001-SUBJ0025,39,BP,Blood Pressure,111/99,mmHg,111/99,,mmHg,,WEEK 16,8,2025-03-15,112
STUDY001,VS,STUDY001-SUBJ0025,40,HR,Heart Rate,58,beats/min,58,58.0,beats/min,,WEEK 16,8,2025-03-15,112
STUDY001,VS,STUDY001-SUBJ0025,41,HEIGHT,Height,194.0,cm,194.0,194.0,cm,,END OF TREATMENT,9,2025-04-12,140
STUDY001,VS,STUDY001-SUBJ0025,42,WEIGHT,Weight,71.6,kg,71.6,71.6,kg,,END OF TREATMENT,9,2025-04-12,140
STUDY001,VS,STUDY001-SUBJ0025,43,TEMP,Temperature,36.8,C,36.8,36.8,C,,END OF TREATMENT,9,2025-04-12,140
STUDY001,VS,STUDY001-SUBJ0025,44,BP,Blood Pressure,106/98,mmHg,106/98,,mmHg,,END OF TREATMENT,9,2025-04-12,140
STUDY001,VS,STUDY001-SUBJ0025,45,HR,Heart Rate,64,beats/min,64,64.0,beats/min,,END OF TREATMENT,9,2025-04-12,140
STUDY001,VS,STUDY001-SUBJ0026,1,HEIGHT,Height,171.1,cm,171.1,171.1,cm,,SCREENING,1,2025-03-03,-14
STUDY001,VS,STUDY001-SUBJ0026,2,WEIGHT,Weight,55.4,kg,55.4,55.4,kg,,SCREENING,1,2025-03-03,-14
STUDY001,VS,STUDY001-SUBJ0026,3,TEMP,Temperature,36.5,C,36.5,36.5,C,,SCREENING,1,2025-03-03,-14
STUDY001,VS,STUDY001-SUBJ0026,4,BP,Blood Pressure,95/74,mmHg,95/74,,mmHg,,SCREENING,1,2025-03-03,-14
STUDY001,VS,STUDY001-SUBJ0026,5,HR,Heart Rate,82,beats/min,82,82.0,beats/min,,SCREENING,1,2025-03-03,-14
STUDY001,VS,STUDY001-SUBJ0026,6,HEIGHT,Height,171.2,cm,171.2,171.2,cm,Y,BASELINE,2,2025-03-17,1
STUDY001,VS,STUDY001-SUBJ0026,7,WEIGHT,Weight,56.1,kg,56.1,56.1,kg,Y,BASELINE,2,2025-03-17,1
STUDY001,VS,STUDY001-SUBJ0026,8,TEMP,Temperature,36.1,C,36.1,36.1,C,Y,BASELINE,2,2025-03-17,1
STUDY001,VS,STUDY001-SUBJ0026,9,BP,Blood Pressure,99/71,mmHg,99/71,,mmHg,Y,BASELINE,2,2025-03-17,1
STUDY001,VS,STUDY001-SUBJ0026,10,HR,Heart Rate,82,beats/min,82,82.0,beats/min,Y,BASELINE,2,2025-03-17,1
STUDY001,VS,STUDY001-SUBJ0026,11,HEIGHT,Height,171.2,cm,171.2,171.2,cm,,WEEK 1,3,2025-03-23,7
STUDY001,VS,STUDY001-SUBJ0026,12,WEIGHT,Weight,56.5,kg,56.5,56.5,kg,,WEEK 1,3,2025-03-23,7
STUDY001,VS,STUDY001-SUBJ0026,13,TEMP,Temperature,36.5,C,36.5,36.5,C,,WEEK 1,3,2025-03-23,7
STUDY001,VS,STUDY001-SUBJ0026,14,BP,Blood Pressure,102/74,mmHg,102/74,,mmHg,,WEEK 1,3,2025-03-23,7
STUDY001,VS,STUDY001-SUBJ0026,15,HR,Heart Rate,87,beats/min,87,87.0,beats/min,,WEEK 1,3,2025-03-23,7
STUDY001,VS,STUDY001-SUBJ0026,16,HEIGHT,Height,171.1,cm,171.1,171.1,cm,,WEEK 2,4,2025-03-30,14
STUDY001,VS,STUDY001-SUBJ0026,17,WEIGHT,Weight,55.7,kg,55.7,55.7,kg,,WEEK 2,4,2025-03-30,14
STUDY001,VS,STUDY001-SUBJ0026,18,TEMP,Temperature,36.5,C,36.5,36.5,C,,WEEK 2,4,2025-03-30,14
STUDY001,VS,STUDY001-SUBJ0026,19,BP,Blood Pressure,97/74,mmHg,97/74,,mmHg,,WEEK 2,4,2025-03-30,14
STUDY001,VS,STUDY001-SUBJ0026,20,HR,Heart Rate,80,beats/min,80,80.0,beats/min,,WEEK 2,4,2025-03-30,14
STUDY001,VS,STUDY001-SUBJ0026,21,HEIGHT,Height,171.0,cm,171.0,171.0,cm,,WEEK 4,5,2025-04-13,28
STUDY001,VS,STUDY001-SUBJ0026,22,WEIGHT,Weight,56.1,kg,56.1,56.1,kg,,WEEK 4,5,2025-04-13,28
STUDY001,VS,STUDY001-SUBJ0026,23,TEMP,Temperature,36.1,C,36.1,36.1,C,,WEEK 4,5,2025-04-13,28
STUDY001,VS,STUDY001-SUBJ0026,24,BP,Blood Pressure,97/79,mmHg,97/79,,mmHg,,WEEK 4,5,2025-04-13,28
STUDY001,VS,STUDY001-SUBJ0026,25,HR,Heart Rate,79,beats/min,79,79.0,beats/min,,WEEK 4,5,2025-04-13,28
STUDY001,VS,STUDY001-SUBJ0026,26,HEIGHT,Height,171.1,cm,171.1,171.1,cm,,WEEK 8,6,2025-05-11,56
STUDY001,VS,STUDY001-SUBJ0026,27,WEIGHT,Weight,55.7,kg,55.7,55.7,kg,,WEEK 8,6,2025-05-11,56
STUDY001,VS,STUDY001-SUBJ0026,28,TEMP,Temperature,36.0,C,36.0,36.0,C,,WEEK 8,6,2025-05-11,56
STUDY001,VS,STUDY001-SUBJ0026,29,BP,Blood Pressure,96/77,mmHg,96/77,,mmHg,,WEEK 8,6,2025-05-11,56
STUDY001,VS,STUDY001-SUBJ0026,30,HR,Heart Rate,87,beats/min,87,87.0,beats/min,,WEEK 8,6,2025-05-11,56
STUDY001,VS,STUDY001-SUBJ0026,31,HEIGHT,Height,171.0,cm,171.0,171.0,cm,,WEEK 12,7,2025-06-08,84
STUDY001,VS,STUDY001-SUBJ0026,32,WEIGHT,Weight,56.1,kg,56.1,56.1,kg,,WEEK 12,7,2025-06-08,84
STUDY001,VS,STUDY001-SUBJ0026,33,TEMP,Temperature,36.2,C,36.2,36.2,C,,WEEK 12,7,2025-06-08,84
STUDY001,VS,STUDY001-SUBJ0026,34,BP,Blood Pressure,99/80,mmHg,99/80,,mmHg,,WEEK 12,7,2025-06-08,84
STUDY001,VS,STUDY001-SUBJ0026,35,HR,Heart Rate,79,beats/min,79,79.0,beats/min,,WEEK 12,7,2025-06-08,84
STUDY001,VS,STUDY001-SUBJ0026,36,HEIGHT,Height,171.2,cm,171.2,171.2,cm,,WEEK 16,8,2025-07-06,112
STUDY001,VS,STUDY001-SUBJ0026,37,WEIGHT,Weight,56.1,kg,56.1,56.1,kg,,WEEK 16,8,2025-07-06,112
STUDY001,VS,STUDY001-SUBJ0026,38,TEMP,Temperature,36.3,C,36.3,36.3,C,,WEEK 16,8,2025-07-06,112
STUDY001,VS,STUDY001-SUBJ0026,39,BP,Blood Pressure,103/70,mmHg,103/70,,mmHg,,WEEK 16,8,2025-07-06,112
STUDY001,VS,STUDY001-SUBJ0026,40,HR,Heart Rate,83,beats/min,83,83.0,beats/min,,WEEK 16,8,2025-07-06,112
STUDY001,VS,STUDY001-SUBJ0026,41,HEIGHT,Height,171.2,cm,171.2,171.2,cm,,END OF TREATMENT,9,2025-08-03,140
STUDY001,VS,STUDY001-SUBJ0026,42,WEIGHT,Weight,55.4,kg,55.4,55.4,kg,,END OF TREATMENT,9,2025-08-03,140
STUDY001,VS,STUDY001-SUBJ0026,43,TEMP,Temperature,36.0,C,36.0,36.0,C,,END OF TREATMENT,9,2025-08-03,140
STUDY001,VS,STUDY001-SUBJ0026,44,BP,Blood Pressure,102/74,mmHg,102/74,,mmHg,,END OF TREATMENT,9,2025-08-03,140
STUDY001,VS,STUDY001-SUBJ0026,45,HR,Heart Rate,78,beats/min,78,78.0,beats/min,,END OF TREATMENT,9,2025-08-03,140
STUDY001,VS,STUDY001-SUBJ0027,1,HEIGHT,Height,185.8,cm,185.8,185.8,cm,,SCREENING,1,2025-05-09,-14
STUDY001,VS,STUDY001-SUBJ0027,2,WEIGHT,Weight,88.1,kg,88.1,88.1,kg,,SCREENING,1,2025-05-09,-14
STUDY001,VS,STUDY001-SUBJ0027,3,TEMP,Temperature,37.0,C,37.0,37.0,C,,SCREENING,1,2025-05-09,-14
STUDY001,VS,STUDY001-SUBJ0027,4,BP,Blood Pressure,139/87,mmHg,139/87,,mmHg,,SCREENING,1,2025-05-09,-14
STUDY001,VS,STUDY001-SUBJ0027,5,HR,Heart Rate,79,beats/min,79,79.0,beats/min,,SCREENING,1,2025-05-09,-14
STUDY001,VS,STUDY001-SUBJ0027,6,HEIGHT,Height,185.7,cm,185.7,185.7,cm,Y,BASELINE,2,2025-05-23,1
STUDY001,VS,STUDY001-SUBJ0027,7,WEIGHT,Weight,87.0,kg,87.0,87.0,kg,Y,BASELINE,2,2025-05-23,1
STUDY001,VS,STUDY001-SUBJ0027,8,TEMP,Temperature,36.8,C,36.8,36.8,C,Y,BASELINE,2,2025-05-23,1
STUDY001,VS,STUDY001-SUBJ0027,9,BP,Blood Pressure,140/85,mmHg,140/85,,mmHg,Y,BASELINE,2,2025-05-23,1
STUDY001,VS,STUDY001-SUBJ0027,10,HR,Heart Rate,80,beats/min,80,80.0,beats/min,Y,BASELINE,2,2025-05-23,1
STUDY001,VS,STUDY001-SUBJ0027,11,HEIGHT,Height,186.0,cm,186.0,186.0,cm,,WEEK 1,3,2025-05-29,7
STUDY001,VS,STUDY001-SUBJ0027,12,WEIGHT,Weight,88.1,kg,88.1,88.1,kg,,WEEK 1,3,2025-05-29,7
STUDY001,VS,STUDY001-SUBJ0027,13,TEMP,Temperature,36.7,C,36.7,36.7,C,,WEEK 1,3,2025-05-29,7
STUDY001,VS,STUDY001-SUBJ0027,14,BP,Blood Pressure,144/87,mmHg,144/87,,mmHg,,WEEK 1,3,2025-05-29,7
STUDY001,VS,STUDY001-SUBJ0027,15,HR,Heart Rate,79,beats/min,79,79.0,beats/min,,WEEK 1,3,2025-05-29,7
STUDY001,VS,STUDY001-SUBJ0027,16,HEIGHT,Height,185.9,cm,185.9,185.9,cm,,WEEK 2,4,2025-06-05,14
STUDY001,VS,STUDY001-SUBJ0027,17,WEIGHT,Weight,87.2,kg,87.2,87.2,kg,,WEEK 2,4,2025-06-05,14
STUDY001,VS,STUDY001-SUBJ0027,18,TEMP,Temperature,36.9,C,36.9,36.9,C,,WEEK 2,4,2025-06-05,14
STUDY001,VS,STUDY001-SUBJ0027,19,BP,Blood Pressure,137/81,mmHg,137/81,,mmHg,,WEEK 2,4,2025-06-05,14
STUDY001,VS,STUDY001-SUBJ0027,20,HR,Heart Rate,82,beats/min,82,82.0,beats/min,,WEEK 2,4,2025-06-05,14
STUDY001,VS,STUDY001-SUBJ0027,21,HEIGHT,Height,186.0,cm,186.0,186.0,cm,,WEEK 4,5,2025-06-19,28
STUDY001,VS,STUDY001-SUBJ0027,22,WEIGHT,Weight,88.0,kg,88.0,88.0,kg,,WEEK 4,5,2025-06-19,28
STUDY001,VS,STUDY001-SUBJ0027,23,TEMP,Temperature,36.7,C,36.7,36.7,C,,WEEK 4,5,2025-06-19,28
STUDY001,VS,STUDY001-SUBJ0027,24,BP,Blood Pressure,141/81,mmHg,141/81,,mmHg,,WEEK 4,5,2025-06-19,28
STUDY001,VS,STUDY001-SUBJ0027,25,HR,Heart Rate,75,beats/min,75,75.0,beats/min,,WEEK 4,5,2025-06-19,28
STUDY001,VS,STUDY001-SUBJ0027,26,HEIGHT,Height,185.8,cm,185.8,185.8,cm,,WEEK 8,6,2025-07-17,56
STUDY001,VS,STUDY001-SUBJ0027,27,WEIGHT,Weight,87.7,kg,87.7,87.7,kg,,WEEK 8,6,2025-07-17,56
STUDY001,VS,STUDY001-SUBJ0027,28,TEMP,Temperature,36.7,C,36.7,36.7,C,,WEEK 8,6,2025-07-17,56
STUDY001,VS,STUDY001-SUBJ0027,29,BP,Blood Pressure,137/83,mmHg,137/83,,mmHg,,WEEK 8,6,2025-07-17,56
STUDY001,VS,STUDY001-SUBJ0027,30,HR,Heart Rate,75,beats/min,75,75.0,beats/min,,WEEK 8,6,2025-07-17,56
STUDY001,VS,STUDY001-SUBJ0027,31,HEIGHT,Height,185.7,cm,185.7,185.7,cm,,WEEK 12,7,2025-08-14,84
STUDY001,VS,STUDY001-SUBJ0027,32,WEIGHT,Weight,88.1,kg,88.1,88.1,kg,,WEEK 12,7,2025-08-14,84
STUDY001,VS,STUDY001-SUBJ0027,33,TEMP,Temperature,37.1,C,37.1,37.1,C,,WEEK 12,7,2025-08-14,84
STUDY001,VS,STUDY001-SUBJ0027,34,BP,Blood Pressure,135/84,mmHg,135/84,,mmHg,,WEEK 12,7,2025-08-14,84
STUDY001,VS,STUDY001-SUBJ0027,35,HR,Heart Rate,81,beats/min,81,81.0,beats/min,,WEEK 12,7,2025-08-14,84
STUDY001,VS,STUDY001-SUBJ0027,36,HEIGHT,Height,185.9,cm,185.9,185.9,cm,,WEEK 16,8,2025-09-11,112
STUDY001,VS,STUDY001-SUBJ0027,37,WEIGHT,Weight,88.0,kg,88.0,88.0,kg,,WEEK 16,8,2025-09-11,112
STUDY001,VS,STUDY001-SUBJ0027,38,TEMP,Temperature,37.1,C,37.1,37.1,C,,WEEK 16,8,2025-09-11,112
STUDY001,VS,STUDY001-SUBJ0027,39,BP,Blood Pressure,138/82,mmHg,138/82,,mmHg,,WEEK 16,8,2025-09-11,112
STUDY001,VS,STUDY001-SUBJ0027,40,HR,Heart Rate,78,beats/min,78,78.0,beats/min,,WEEK 16,8,2025-09-11,112
STUDY001,VS,STUDY001-SUBJ0027,41,HEIGHT,Height,185.8,cm,185.8,185.8,cm,,END OF TREATMENT,9,2025-10-09,140
STUDY001,VS,STUDY001-SUBJ0027,42,WEIGHT,Weight,87.2,kg,87.2,87.2,kg,,END OF TREATMENT,9,2025-10-09,140
STUDY001,VS,STUDY001-SUBJ0027,43,TEMP,Temperature,36.6,C,36.6,36.6,C,,END OF TREATMENT,9,2025-10-09,140
STUDY001,VS,STUDY001-SUBJ0027,44,BP,Blood Pressure,135/82,mmHg,135/82,,mmHg,,END OF TREATMENT,9,2025-10-09,140
STUDY001,VS,STUDY001-SUBJ0027,45,HR,Heart Rate,80,beats/min,80,80.0,beats/min,,END OF TREATMENT,9,2025-10-09,140
STUDY001,VS,STUDY001-SUBJ0028,1,HEIGHT,Height,195.6,cm,195.6,195.6,cm,,SCREENING,1,2025-05-21,-14
STUDY001,VS,STUDY001-SUBJ0028,2,WEIGHT,Weight,79.9,kg,79.9,79.9,kg,,SCREENING,1,2025-05-21,-14
STUDY001,VS,STUDY001-SUBJ0028,3,TEMP,Temperature,36.4,C,36.4,36.4,C,,SCREENING,1,2025-05-21,-14
STUDY001,VS,STUDY001-SUBJ0028,4,BP,Blood Pressure,109/87,mmHg,109/87,,mmHg,,SCREENING,1,2025-05-21,-14
STUDY001,VS,STUDY001-SUBJ0028,5,HR,Heart Rate,85,beats/min,85,85.0,beats/min,,SCREENING,1,2025-05-21,-14
STUDY001,VS,STUDY001-SUBJ0028,6,HEIGHT,Height,195.7,cm,195.7,195.7,cm,Y,BASELINE,2,2025-06-04,1
STUDY001,VS,STUDY001-SUBJ0028,7,WEIGHT,Weight,80.5,kg,80.5,80.5,kg,Y,BASELINE,2,2025-06-04,1
STUDY001,VS,STUDY001-SUBJ0028,8,TEMP,Temperature,36.3,C,36.3,36.3,C,Y,BASELINE,2,2025-06-04,1
STUDY001,VS,STUDY001-SUBJ0028,9,BP,Blood Pressure,111/93,mmHg,111/93,,mmHg,Y,BASELINE,2,2025-06-04,1
STUDY001,VS,STUDY001-SUBJ0028,10,HR,Heart Rate,84,beats/min,84,84.0,beats/min,Y,BASELINE,2,2025-06-04,1
STUDY001,VS,STUDY001-SUBJ0028,11,HEIGHT,Height,195.8,cm,195.8,195.8,cm,,WEEK 1,3,2025-06-10,7
STUDY001,VS,STUDY001-SUBJ0028,12,WEIGHT,Weight,81.5,kg,81.5,81.5,kg,,WEEK 1,3,2025-06-10,7
STUDY001,VS,STUDY001-SUBJ0028,13,TEMP,Temperature,36.4,C,36.4,36.4,C,,WEEK 1,3,2025-06-10,7
STUDY001,VS,STUDY001-SUBJ0028,14,BP,Blood Pressure,114/90,mmHg,114/90,,mmHg,,WEEK 1,3,2025-06-10,7
STUDY001,VS,STUDY001-SUBJ0028,15,HR,Heart Rate,87,beats/min,87,87.0,beats/min,,WEEK 1,3,2025-06-10,7
STUDY001,VS,STUDY001-SUBJ0028,16,HEIGHT,Height,195.5,cm,195.5,195.5,cm,,WEEK 2,4,2025-06-17,14
STUDY001,VS,STUDY001-SUBJ0028,17,WEIGHT,Weight,80.6,kg,80.6,80.6,kg,,WEEK 2,4,2025-06-17,14
STUDY001,VS,STUDY001-SUBJ0028,18,TEMP,Temperature,36.0,C,36.0,36.0,C,,WEEK 2,4,2025-06-17,14
STUDY001,VS,STUDY001-SUBJ0028,19,BP,Blood Pressure,109/86,mmHg,109/86,,mmHg,,WEEK 2,4,2025-06-17,14
STUDY001,VS,STUDY001-SUBJ0028,20,HR,Heart Rate,90,beats/min,90,90.0,beats/min,,WEEK 2,4,2025-06-17,14
STUDY001,VS,STUDY001-SUBJ0028,21,HEIGHT,Height,195.6,cm,195.6,195.6,cm,,WEEK 4,5,2025-07-01,28
STUDY001,VS,STUDY001-SUBJ0028,22,WEIGHT,Weight,80.9,kg,80.9,80.9,kg,,WEEK 4,5,2025-07-01,28
STUDY001,VS,STUDY001-SUBJ0028,23,TEMP,Temperature,36.3,C,36.3,36.3,C,,WEEK 4,5,2025-07-01,28
STUDY001,VS,STUDY001-SUBJ0028,24,BP,Blood Pressure,109/89,mmHg,109/89,,mmHg,,WEEK 4,5,2025-07-01,28
STUDY001,VS,STUDY001-SUBJ0028,25,HR,Heart Rate,88,beats/min,88,88.0,beats/min,,WEEK 4,5,2025-07-01,28
STUDY001,VS,STUDY001-SUBJ0028,26,HEIGHT,Height,195.8,cm,195.8,195.8,cm,,WEEK 8,6,2025-07-29,56
STUDY001,VS,STUDY001-SUBJ0028,27,WEIGHT,Weight,81.2,kg,81.2,81.2,kg,,WEEK 8,6,2025-07-29,56
STUDY001,VS,STUDY001-SUBJ0028,28,TEMP,Temperature,36.1,C,36.1,36.1,C,,WEEK 8,6,2025-07-29,56
STUDY001,VS,STUDY001-SUBJ0028,29,BP,Blood Pressure,115/87,mmHg,115/87,,mmHg,,WEEK 8,6,2025-07-29,56
STUDY001,VS,STUDY001-SUBJ0028,30,HR,Heart Rate,81,beats/min,81,81.0,beats/min,,WEEK 8,6,2025-07-29,56
STUDY001,VS,STUDY001-SUBJ0028,31,HEIGHT,Height,195.8,cm,195.8,195.8,cm,,WEEK 12,7,2025-08-26,84
STUDY001,VS,STUDY001-SUBJ0028,32,WEIGHT,Weight,80.1,kg,80.1,80.1,kg,,WEEK 12,7,2025-08-26,84
STUDY001,VS,STUDY001-SUBJ0028,33,TEMP,Temperature,36.2,C,36.2,36.2,C,,WEEK 12,7,2025-08-26,84
STUDY001,VS,STUDY001-SUBJ0028,34,BP,Blood Pressure,108/95,mmHg,108/95,,mmHg,,WEEK 12,7,2025-08-26,84
STUDY001,VS,STUDY001-SUBJ0028,35,HR,Heart Rate,85,beats/min,85,85.0,beats/min,,WEEK 12,7,2025-08-26,84
STUDY001,VS,STUDY001-SUBJ0028,36,HEIGHT,Height,195.7,cm,195.7,195.7,cm,,WEEK 16,8,2025-09-23,112
STUDY001,VS,STUDY001-SUBJ0028,37,WEIGHT,Weight,80.4,kg,80.4,80.4,kg,,WEEK 16,8,2025-09-23,112
STUDY001,VS,STUDY001-SUBJ0028,38,TEMP,Temperature,36.3,C,36.3,36.3,C,,WEEK 16,8,2025-09-23,112
STUDY001,VS,STUDY001-SUBJ0028,39,BP,Blood Pressure,114/93,mmHg,114/93,,mmHg,,WEEK 16,8,2025-09-23,112
STUDY001,VS,STUDY001-SUBJ0028,40,HR,Heart Rate,89,beats/min,89,89.0,beats/min,,WEEK 16,8,2025-09-23,112
STUDY001,VS,STUDY001-SUBJ0028,41,HEIGHT,Height,195.6,cm,195.6,195.6,cm,,END OF TREATMENT,9,2025-10-21,140
STUDY001,VS,STUDY001-SUBJ0028,42,WEIGHT,Weight,80.0,kg,80.0,80.0,kg,,END OF TREATMENT,9,2025-10-21,140
STUDY001,VS,STUDY001-SUBJ0028,43,TEMP,Temperature,36.0,C,36.0,36.0,C,,END OF TREATMENT,9,2025-10-21,140
STUDY001,VS,STUDY001-SUBJ0028,44,BP,Blood Pressure,107/90,mmHg,107/90,,mmHg,,END OF TREATMENT,9,2025-10-21,140
STUDY001,VS,STUDY001-SUBJ0028,45,HR,Heart Rate,90,beats/min,90,90.0,beats/min,,END OF TREATMENT,9,2025-10-21,140
STUDY001,VS,STUDY001-SUBJ0029,1,HEIGHT,Height,171.6,cm,171.6,171.6,cm,,SCREENING,1,2024-12-23,-14
STUDY001,VS,STUDY001-SUBJ0029,2,WEIGHT,Weight,74.9,kg,74.9,74.9,kg,,SCREENING,1,2024-12-23,-14
STUDY001,VS,STUDY001-SUBJ0029,3,TEMP,Temperature,36.3,C,36.3,36.3,C,,SCREENING,1,2024-12-23,-14
STUDY001,VS,STUDY001-SUBJ0029,4,BP,Blood Pressure,117/81,mmHg,117/81,,mmHg,,SCREENING,1,2024-12-23,-14
STUDY001,VS,STUDY001-SUBJ0029,5,HR,Heart Rate,92,beats/min,92,92.0,beats/min,,SCREENING,1,2024-12-23,-14
STUDY001,VS,STUDY001-SUBJ0029,6,HEIGHT,Height,171.4,cm,171.4,171.4,cm,Y,BASELINE,2,2025-01-06,1
STUDY001,VS,STUDY001-SUBJ0029,7,WEIGHT,Weight,74.4,kg,74.4,74.4,kg,Y,BASELINE,2,2025-01-06,1
STUDY001,VS,STUDY001-SUBJ0029,8,TEMP,Temperature,36.1,C,36.1,36.1,C,Y,BASELINE,2,2025-01-06,1
STUDY001,VS,STUDY001-SUBJ0029,9,BP,Blood Pressure,115/81,mmHg,115/81,,mmHg,Y,BASELINE,2,2025-01-06,1
STUDY001,VS,STUDY001-SUBJ0029,10,HR,Heart Rate,85,beats/min,85,85.0,beats/min,Y,BASELINE,2,2025-01-06,1
STUDY001,VS,STUDY001-SUBJ0029,11,HEIGHT,Height,171.5,cm,171.5,171.5,cm,,WEEK 1,3,2025-01-12,7
STUDY001,VS,STUDY001-SUBJ0029,12,WEIGHT,Weight,74.1,kg,74.1,74.1,kg,,WEEK 1,3,2025-01-12,7
STUDY001,VS,STUDY001-SUBJ0029,13,TEMP,Temperature,36.4,C,36.4,36.4,C,,WEEK 1,3,2025-01-12,7
STUDY001,VS,STUDY001-SUBJ0029,14,BP,Blood Pressure,114/81,mmHg,114/81,,mmHg,,WEEK 1,3,2025-01-12,7
STUDY001,VS,STUDY001-SUBJ0029,15,HR,Heart Rate,86,beats/min,86,86.0,beats/min,,WEEK 1,3,2025-01-12,7
STUDY001,VS,STUDY001-SUBJ0029,16,HEIGHT,Height,171.6,cm,171.6,171.6,cm,,WEEK 2,4,2025-01-19,14
STUDY001,VS,STUDY001-SUBJ0029,17,WEIGHT,Weight,75.1,kg,75.1,75.1,kg,,WEEK 2,4,2025-01-19,14
STUDY001,VS,STUDY001-SUBJ0029,18,TEMP,Temperature,36.7,C,36.7,36.7,C,,WEEK 2,4,2025-01-19,14
STUDY001,VS,STUDY001-SUBJ0029,19,BP,Blood Pressure,119/79,mmHg,119/79,,mmHg,,WEEK 2,4,2025-01-19,14
STUDY001,VS,STUDY001-SUBJ0029,20,HR,Heart Rate,90,beats/min,90,90.0,beats/min,,WEEK 2,4,2025-01-19,14
STUDY001,VS,STUDY001-SUBJ0029,21,HEIGHT,Height,171.5,cm,171.5,171.5,cm,,WEEK 4,5,2025-02-02,28
STUDY001,VS,STUDY001-SUBJ0029,22,WEIGHT,Weight,74.9,kg,74.9,74.9,kg,,WEEK 4,5,2025-02-02,28
STUDY001,VS,STUDY001-SUBJ0029,23,TEMP,Temperature,36.4,C,36.4,36.4,C,,WEEK 4,5,2025-02-02,28
STUDY001,VS,STUDY001-SUBJ0029,24,BP,Blood Pressure,114/75,mmHg,114/75,,mmHg,,WEEK 4,5,2025-02-02,28
STUDY001,VS,STUDY001-SUBJ0029,25,HR,Heart Rate,85,beats/min,85,85.0,beats/min,,WEEK 4,5,2025-02-02,28
STUDY001,VS,STUDY001-SUBJ0029,26,HEIGHT,Height,171.7,cm,171.7,171.7,cm,,WEEK 8,6,2025-03-02,56
STUDY001,VS,STUDY001-SUBJ0029,27,WEIGHT,Weight,74.9,kg,74.9,74.9,kg,,WEEK 8,6,2025-03-02,56
STUDY001,VS,STUDY001-SUBJ0029,28,TEMP,Temperature,36.7,C,36.7,36.7,C,,WEEK 8,6,2025-03-02,56
STUDY001,VS,STUDY001-SUBJ0029,29,BP,Blood Pressure,114/82,mmHg,114/82,,mmHg,,WEEK 8,6,2025-03-02,56
STUDY001,VS,STUDY001-SUBJ0029,30,HR,Heart Rate,88,beats/min,88,88.0,beats/min,,WEEK 8,6,2025-03-02,56
STUDY001,VS,STUDY001-SUBJ0029,31,HEIGHT,Height,171.8,cm,171.8,171.8,cm,,WEEK 12,7,2025-03-30,84
STUDY001,VS,STUDY001-SUBJ0029,32,WEIGHT,Weight,74.9,kg,74.9,74.9,kg,,WEEK 12,7,2025-03-30,84
STUDY001,VS,STUDY001-SUBJ0029,33,TEMP,Temperature,36.2,C,36.2,36.2,C,,WEEK 12,7,2025-03-30,84
STUDY001,VS,STUDY001-SUBJ0029,34,BP,Blood Pressure,111/84,mmHg,111/84,,mmHg,,WEEK 12,7,2025-03-30,84
STUDY001,VS,STUDY001-SUBJ0029,35,HR,Heart Rate,88,beats/min,88,88.0,beats/min,,WEEK 12,7,2025-03-30,84
STUDY001,VS,STUDY001-SUBJ0029,36,HEIGHT,Height,171.8,cm,171.8,171.8,cm,,WEEK 16,8,2025-04-27,112
STUDY001,VS,STUDY001-SUBJ0029,37,WEIGHT,Weight,74.9,kg,74.9,74.9,kg,,WEEK 16,8,2025-04-27,112
STUDY001,VS,STUDY001-SUBJ0029,38,TEMP,Temperature,36.3,C,36.3,36.3,C,,WEEK 16,8,2025-04-27,112
STUDY001,VS,STUDY001-SUBJ0029,39,BP,Blood Pressure,112/84,mmHg,112/84,,mmHg,,WEEK 16,8,2025-04-27,112
STUDY001,VS,STUDY001-SUBJ0029,40,HR,Heart Rate,83,beats/min,83,83.0,beats/min,,WEEK 16,8,2025-04-27,112
STUDY001,VS,STUDY001-SUBJ0029,41,HEIGHT,Height,171.5,cm,171.5,171.5,cm,,END OF TREATMENT,9,2025-05-25,140
STUDY001,VS,STUDY001-SUBJ0029,42,WEIGHT,Weight,74.2,kg,74.2,74.2,kg,,END OF TREATMENT,9,2025-05-25,140
STUDY001,VS,STUDY001-SUBJ0029,43,TEMP,Temperature,36.4,C,36.4,36.4,C,,END OF TREATMENT,9,2025-05-25,140
STUDY001,VS,STUDY001-SUBJ0029,44,BP,Blood Pressure,120/83,mmHg,120/83,,mmHg,,END OF TREATMENT,9,2025-05-25,140
STUDY001,VS,STUDY001-SUBJ0029,45,HR,Heart Rate,87,beats/min,87,87.0,beats/min,,END OF TREATMENT,9,2025-05-25,140
STUDY001,VS,STUDY001-SUBJ0030,1,HEIGHT,Height,183.3,cm,183.3,183.3,cm,,SCREENING,1,2025-07-07,-14
STUDY001,VS,STUDY001-SUBJ0030,2,WEIGHT,Weight,104.9,kg,104.9,104.9,kg,,SCREENING,1,2025-07-07,-14
STUDY001,VS,STUDY001-SUBJ0030,3,TEMP,Temperature,37.2,C,37.2,37.2,C,,SCREENING,1,2025-07-07,-14
STUDY001,VS,STUDY001-SUBJ0030,4,BP,Blood Pressure,116/89,mmHg,116/89,,mmHg,,SCREENING,1,2025-07-07,-14
STUDY001,VS,STUDY001-SUBJ0030,5,HR,Heart Rate,85,beats/min,85,85.0,beats/min,,SCREENING,1,2025-07-07,-14
STUDY001,VS,STUDY001-SUBJ0030,6,HEIGHT,Height,183.3,cm,183.3,183.3,cm,Y,BASELINE,2,2025-07-21,1
STUDY001,VS,STUDY001-SUBJ0030,7,WEIGHT,Weight,105.0,kg,105.0,105.0,kg,Y,BASELINE,2,2025-07-21,1
STUDY001,VS,STUDY001-SUBJ0030,8,TEMP,Temperature,37.0,C,37.0,37.0,C,Y,BASELINE,2,2025-07-21,1
STUDY001,VS,STUDY001-SUBJ0030,9,BP,Blood Pressure,111/95,mmHg,111/95,,mmHg,Y,BASELINE,2,2025-07-21,1
STUDY001,VS,STUDY001-SUBJ0030,10,HR,Heart Rate,80,beats/min,80,80.0,beats/min,Y,BASELINE,2,2025-07-21,1
STUDY001,VS,STUDY001-SUBJ0030,11,HEIGHT,Height,183.4,cm,183.4,183.4,cm,,WEEK 1,3,2025-07-27,7
STUDY001,VS,STUDY001-SUBJ0030,12,WEIGHT,Weight,104.5,kg,104.5,104.5,kg,,WEEK 1,3,2025-07-27,7
STUDY001,VS,STUDY001-SUBJ0030,13,TEMP,Temperature,37.3,C,37.3,37.3,C,,WEEK 1,3,2025-07-27,7
STUDY001,VS,STUDY001-SUBJ0030,14,BP,Blood Pressure,110/97,mmHg,110/97,,mmHg,,WEEK 1,3,2025-07-27,7
STUDY001,VS,STUDY001-SUBJ0030,15,HR,Heart Rate,87,beats/min,87,87.0,beats/min,,WEEK 1,3,2025-07-27,7
STUDY001,VS,STUDY001-SUBJ0030,16,HEIGHT,Height,183.3,cm,183.3,183.3,cm,,WEEK 2,4,2025-08-03,14
STUDY001,VS,STUDY001-SUBJ0030,17,WEIGHT,Weight,104.6,kg,104.6,104.6,kg,,WEEK 2,4,2025-08-03,14
STUDY001,VS,STUDY001-SUBJ0030,18,TEMP,Temperature,37.1,C,37.1,37.1,C,,WEEK 2,4,2025-08-03,14
STUDY001,VS,STUDY001-SUBJ0030,19,BP,Blood Pressure,114/92,mmHg,114/92,,mmHg,,WEEK 2,4,2025-08-03,14
STUDY001,VS,STUDY001-SUBJ0030,20,HR,Heart Rate,80,beats/min,80,80.0,beats/min,,WEEK 2,4,2025-08-03,14
STUDY001,VS,STUDY001-SUBJ0030,21,HEIGHT,Height,183.2,cm,183.2,183.2,cm,,WEEK 4,5,2025-08-17,28
STUDY001,VS,STUDY001-SUBJ0030,22,WEIGHT,Weight,104.3,kg,104.3,104.3,kg,,WEEK 4,5,2025-08-17,28
STUDY001,VS,STUDY001-SUBJ0030,23,TEMP,Temperature,37.2,C,37.2,37.2,C,,WEEK 4,5,2025-08-17,28
STUDY001,VS,STUDY001-SUBJ0030,24,BP,Blood Pressure,111/93,mmHg,111/93,,mmHg,,WEEK 4,5,2025-08-17,28
STUDY001,VS,STUDY001-SUBJ0030,25,HR,Heart Rate,87,beats/min,87,87.0,beats/min,,WEEK 4,5,2025-08-17,28
STUDY001,VS,STUDY001-SUBJ0030,26,HEIGHT,Height,183.4,cm,183.4,183.4,cm,,WEEK 8,6,2025-09-14,56
STUDY001,VS,STUDY001-SUBJ0030,27,WEIGHT,Weight,105.4,kg,105.4,105.4,kg,,WEEK 8,6,2025-09-14,56
STUDY001,VS,STUDY001-SUBJ0030,28,TEMP,Temperature,37.1,C,37.1,37.1,C,,WEEK 8,6,2025-09-14,56
STUDY001,VS,STUDY001-SUBJ0030,29,BP,Blood Pressure,110/91,mmHg,110/91,,mmHg,,WEEK 8,6,2025-09-14,56
STUDY001,VS,STUDY001-SUBJ0030,30,HR,Heart Rate,86,beats/min,86,86.0,beats/min,,WEEK 8,6,2025-09-14,56
STUDY001,VS,STUDY001-SUBJ0030,31,HEIGHT,Height,183.3,cm,183.3,183.3,cm,,WEEK 12,7,2025-10-12,84
STUDY001,VS,STUDY001-SUBJ0030,32,WEIGHT,Weight,106.2,kg,106.2,106.2,kg,,WEEK 12,7,2025-10-12,84
STUDY001,VS,STUDY001-SUBJ0030,33,TEMP,Temperature,37.2,C,37.2,37.2,C,,WEEK 12,7,2025-10-12,84
STUDY001,VS,STUDY001-SUBJ0030,34,BP,Blood Pressure,117/94,mmHg,117/94,,mmHg,,WEEK 12,7,2025-10-12,84
STUDY001,VS,STUDY001-SUBJ0030,35,HR,Heart Rate,80,beats/min,80,80.0,beats/min,,WEEK 12,7,2025-10-12,84
STUDY001,VS,STUDY001-SUBJ0030,36,HEIGHT,Height,183.5,cm,183.5,183.5,cm,,WEEK 16,8,2025-11-09,112
STUDY001,VS,STUDY001-SUBJ0030,37,WEIGHT,Weight,106.2,kg,106.2,106.2,kg,,WEEK 16,8,2025-11-09,112
STUDY001,VS,STUDY001-SUBJ0030,38,TEMP,Temperature,36.9,C,36.9,36.9,C,,WEEK 16,8,2025-11-09,112
STUDY001,VS,STUDY001-SUBJ0030,39,BP,Blood Pressure,110/92,mmHg,110/92,,mmHg,,WEEK 16,8,2025-11-09,112
STUDY001,VS,STUDY001-SUBJ0030,40,HR,Heart Rate,85,beats/min,85,85.0,beats/min,,WEEK 16,8,2025-11-09,112
STUDY001,VS,STUDY001-SUBJ0030,41,HEIGHT,Height,183.2,cm,183.2,183.2,cm,,END OF TREATMENT,9,2025-12-07,140
STUDY001,VS,STUDY001-SUBJ0030,42,WEIGHT,Weight,105.9,kg,105.9,105.9,kg,,END OF TREATMENT,9,2025-12-07,140
STUDY001,VS,STUDY001-SUBJ0030,43,TEMP,Temperature,36.9,C,36.9,36.9,C,,END OF TREATMENT,9,2025-12-07,140
STUDY001,VS,STUDY001-SUBJ0030,44,BP,Blood Pressure,113/90,mmHg,113/90,,mmHg,,END OF TREATMENT,9,2025-12-07,140
STUDY001,VS,STUDY001-SUBJ0030,45,HR,Heart Rate,83,beats/min,83,83.0,beats/min,,END OF TREATMENT,9,2025-12-07,140
STUDY001,VS,STUDY001-SUBJ0031,1,HEIGHT,Height,166.6,cm,166.6,166.6,cm,,SCREENING,1,2025-05-16,-14
STUDY001,VS,STUDY001-SUBJ0031,2,WEIGHT,Weight,82.9,kg,82.9,82.9,kg,,SCREENING,1,2025-05-16,-14
STUDY001,VS,STUDY001-SUBJ0031,3,TEMP,Temperature,36.5,C,36.5,36.5,C,,SCREENING,1,2025-05-16,-14
STUDY001,VS,STUDY001-SUBJ0031,4,BP,Blood Pressure,107/87,mmHg,107/87,,mmHg,,SCREENING,1,2025-05-16,-14
STUDY001,VS,STUDY001-SUBJ0031,5,HR,Heart Rate,56,beats/min,56,56.0,beats/min,,SCREENING,1,2025-05-16,-14
STUDY001,VS,STUDY001-SUBJ0031,6,HEIGHT,Height,166.4,cm,166.4,166.4,cm,Y,BASELINE,2,2025-05-30,1
STUDY001,VS,STUDY001-SUBJ0031,7,WEIGHT,Weight,83.1,kg,83.1,83.1,kg,Y,BASELINE,2,2025-05-30,1
STUDY001,VS,STUDY001-SUBJ0031,8,TEMP,Temperature,36.8,C,36.8,36.8,C,Y,BASELINE,2,2025-05-30,1
STUDY001,VS,STUDY001-SUBJ0031,9,BP,Blood Pressure,111/90,mmHg,111/90,,mmHg,Y,BASELINE,2,2025-05-30,1
STUDY001,VS,STUDY001-SUBJ0031,10,HR,Heart Rate,58,beats/min,58,58.0,beats/min,Y,BASELINE,2,2025-05-30,1
STUDY001,VS,STUDY001-SUBJ0031,11,HEIGHT,Height,166.5,cm,166.5,166.5,cm,,WEEK 1,3,2025-06-05,7
STUDY001,VS,STUDY001-SUBJ0031,12,WEIGHT,Weight,82.6,kg,82.6,82.6,kg,,WEEK 1,3,2025-06-05,7
STUDY001,VS,STUDY001-SUBJ0031,13,TEMP,Temperature,36.7,C,36.7,36.7,C,,WEEK 1,3,2025-06-05,7
STUDY001,VS,STUDY001-SUBJ0031,14,BP,Blood Pressure,112/86,mmHg,112/86,,mmHg,,WEEK 1,3,2025-06-05,7
STUDY001,VS,STUDY001-SUBJ0031,15,HR,Heart Rate,60,beats/min,60,60.0,beats/min,,WEEK 1,3,2025-06-05,7
STUDY001,VS,STUDY001-SUBJ0031,16,HEIGHT,Height,166.6,cm,166.6,166.6,cm,,WEEK 2,4,2025-06-12,14
STUDY001,VS,STUDY001-SUBJ0031,17,WEIGHT,Weight,82.8,kg,82.8,82.8,kg,,WEEK 2,4,2025-06-12,14
STUDY001,VS,STUDY001-SUBJ0031,18,TEMP,Temperature,36.6,C,36.6,36.6,C,,WEEK 2,4,2025-06-12,14
STUDY001,VS,STUDY001-SUBJ0031,19,BP,Blood Pressure,110/89,mmHg,110/89,,mmHg,,WEEK 2,4,2025-06-12,14
STUDY001,VS,STUDY001-SUBJ0031,20,HR,Heart Rate,56,beats/min,56,56.0,beats/min,,WEEK 2,4,2025-06-12,14
STUDY001,VS,STUDY001-SUBJ0031,21,HEIGHT,Height,166.6,cm,166.6,166.6,cm,,WEEK 4,5,2025-06-26,28
STUDY001,VS,STUDY001-SUBJ0031,22,WEIGHT,Weight,83.0,kg,83.0,83.0,kg,,WEEK 4,5,2025-06-26,28
STUDY001,VS,STUDY001-SUBJ0031,23,TEMP,Temperature,36.5,C,36.5,36.5,C,,WEEK 4,5,2025-06-26,28
STUDY001,VS,STUDY001-SUBJ0031,24,BP,Blood Pressure,103/88,mmHg,103/88,,mmHg,,WEEK 4,5,2025-06-26,28
STUDY001,VS,STUDY001-SUBJ0031,25,HR,Heart Rate,58,beats/min,58,58.0,beats/min,,WEEK 4,5,2025-06-26,28
STUDY001,VS,STUDY001-SUBJ0031,26,HEIGHT,Height,166.7,cm,166.7,166.7,cm,,WEEK 8,6,2025-07-24,56
STUDY001,VS,STUDY001-SUBJ0031,27,WEIGHT,Weight,82.6,kg,82.6,82.6,kg,,WEEK 8,6,2025-07-24,56
STUDY001,VS,STUDY001-SUBJ0031,28,TEMP,Temperature,36.2,C,36.2,36.2,C,,WEEK 8,6,2025-07-24,56
STUDY001,VS,STUDY001-SUBJ0031,29,BP,Blood Pressure,111/89,mmHg,111/89,,mmHg,,WEEK 8,6,2025-07-24,56
STUDY001,VS,STUDY001-SUBJ0031,30,HR,Heart Rate,64,beats/min,64,64.0,beats/min,,WEEK 8,6,2025-07-24,56
STUDY001,VS,STUDY001-SUBJ0031,31,HEIGHT,Height,166.5,cm,166.5,166.5,cm,,WEEK 12,7,2025-08-21,84
STUDY001,VS,STUDY001-SUBJ0031,32,WEIGHT,Weight,82.9,kg,82.9,82.9,kg,,WEEK 12,7,2025-08-21,84
STUDY001,VS,STUDY001-SUBJ0031,33,TEMP,Temperature,36.7,C,36.7,36.7,C,,WEEK 12,7,2025-08-21,84
STUDY001,VS,STUDY001-SUBJ0031,34,BP,Blood Pressure,105/83,mmHg,105/83,,mmHg,,WEEK 12,7,2025-08-21,84
STUDY001,VS,STUDY001-SUBJ0031,35,HR,Heart Rate,59,beats/min,59,59.0,beats/min,,WEEK 12,7,2025-08-21,84
STUDY001,VS,STUDY001-SUBJ0031,36,HEIGHT,Height,166.4,cm,166.4,166.4,cm,,WEEK 16,8,2025-09-18,112
STUDY001,VS,STUDY001-SUBJ0031,37,WEIGHT,Weight,83.1,kg,83.1,83.1,kg,,WEEK 16,8,2025-09-18,112
STUDY001,VS,STUDY001-SUBJ0031,38,TEMP,Temperature,36.3,C,36.3,36.3,C,,WEEK 16,8,2025-09-18,112
STUDY001,VS,STUDY001-SUBJ0031,39,BP,Blood Pressure,107/83,mmHg,107/83,,mmHg,,WEEK 16,8,2025-09-18,112
STUDY001,VS,STUDY001-SUBJ0031,40,HR,Heart Rate,55,beats/min,55,55.0,beats/min,,WEEK 16,8,2025-09-18,112
STUDY001,VS,STUDY001-SUBJ0031,41,HEIGHT,Height,166.6,cm,166.6,166.6,cm,,END OF TREATMENT,9,2025-10-16,140
STUDY001,VS,STUDY001-SUBJ0031,42,WEIGHT,Weight,81.8,kg,81.8,81.8,kg,,END OF TREATMENT,9,2025-10-16,140
STUDY001,VS,STUDY001-SUBJ0031,43,TEMP,Temperature,36.7,C,36.7,36.7,C,,END OF TREATMENT,9,2025-10-16,140
STUDY001,VS,STUDY001-SUBJ0031,44,BP,Blood Pressure,105/86,mmHg,105/86,,mmHg,,END OF TREATMENT,9,2025-10-16,140
STUDY001,VS,STUDY001-SUBJ0031,45,HR,Heart Rate,58,beats/min,58,58.0,beats/min,,END OF TREATMENT,9,2025-10-16,140
STUDY001,VS,STUDY001-SUBJ0032,1,HEIGHT,Height,164.0,cm,164.0,164.0,cm,,SCREENING,1,2025-06-02,-14
STUDY001,VS,STUDY001-SUBJ0032,2,WEIGHT,Weight,111.7,kg,111.7,111.7,kg,,SCREENING,1,2025-06-02,-14
STUDY001,VS,STUDY001-SUBJ0032,3,TEMP,Temperature,36.3,C,36.3,36.3,C,,SCREENING,1,2025-06-02,-14
STUDY001,VS,STUDY001-SUBJ0032,4,BP,Blood Pressure,103/89,mmHg,103/89,,mmHg,,SCREENING,1,2025-06-02,-14
STUDY001,VS,STUDY001-SUBJ0032,5,HR,Heart Rate,63,beats/min,63,63.0,beats/min,,SCREENING,1,2025-06-02,-14
STUDY001,VS,STUDY001-SUBJ0032,6,HEIGHT,Height,163.9,cm,163.9,163.9,cm,Y,BASELINE,2,2025-06-16,1
STUDY001,VS,STUDY001-SUBJ0032,7,WEIGHT,Weight,112.1,kg,112.1,112.1,kg,Y,BASELINE,2,2025-06-16,1
STUDY001,VS,STUDY001-SUBJ0032,8,TEMP,Temperature,36.4,C,36.4,36.4,C,Y,BASELINE,2,2025-06-16,1
STUDY001,VS,STUDY001-SUBJ0032,9,BP,Blood Pressure,98/94,mmHg,98/94,,mmHg,Y,BASELINE,2,2025-06-16,1
STUDY001,VS,STUDY001-SUBJ0032,10,HR,Heart Rate,62,beats/min,62,62.0,beats/min,Y,BASELINE,2,2025-06-16,1
STUDY001,VS,STUDY001-SUBJ0032,11,HEIGHT,Height,164.0,cm,164.0,164.0,cm,,WEEK 1,3,2025-06-22,7
STUDY001,VS,STUDY001-SUBJ0032,12,WEIGHT,Weight,112.4,kg,112.4,112.4,kg,,WEEK 1,3,2025-06-22,7
STUDY001,VS,STUDY001-SUBJ0032,13,TEMP,Temperature,36.7,C,36.7,36.7,C,,WEEK 1,3,2025-06-22,7
STUDY001,VS,STUDY001-SUBJ0032,14,BP,Blood Pressure,102/85,mmHg,102/85,,mmHg,,WEEK 1,3,2025-06-22,7
STUDY001,VS,STUDY001-SUBJ0032,15,HR,Heart Rate,60,beats/min,60,60.0,beats/min,,WEEK 1,3,2025-06-22,7
STUDY001,VS,STUDY001-SUBJ0032,16,HEIGHT,Height,164.0,cm,164.0,164.0,cm,,WEEK 2,4,2025-06-29,14
STUDY001,VS,STUDY001-SUBJ0032,17,WEIGHT,Weight,112.5,kg,112.5,112.5,kg,,WEEK 2,4,2025-06-29,14
STUDY001,VS,STUDY001-SUBJ0032,18,TEMP,Temperature,36.6,C,36.6,36.6,C,,WEEK 2,4,2025-06-29,14
STUDY001,VS,STUDY001-SUBJ0032,19,BP,Blood Pressure,99/90,mmHg,99/90,,mmHg,,WEEK 2,4,2025-06-29,14
STUDY001,VS,STUDY001-SUBJ0032,20,HR,Heart Rate,65,beats/min,65,65.0,beats/min,,WEEK 2,4,2025-06-29,14
STUDY001,VS,STUDY001-SUBJ0032,21,HEIGHT,Height,164.0,cm,164.0,164.0,cm,,WEEK 4,5,2025-07-13,28
STUDY001,VS,STUDY001-SUBJ0032,22,WEIGHT,Weight,112.6,kg,112.6,112.6,kg,,WEEK 4,5,2025-07-13,28
STUDY001,VS,STUDY001-SUBJ0032,23,TEMP,Temperature,36.5,C,36.5,36.5,C,,WEEK 4,5,2025-07-13,28
STUDY001,VS,STUDY001-SUBJ0032,24,BP,Blood Pressure,106/91,mmHg,106/91,,mmHg,,WEEK 4,5,2025-07-13,28
STUDY001,VS,STUDY001-SUBJ0032,25,HR,Heart Rate,64,beats/min,64,64.0,beats/min,,WEEK 4,5,2025-07-13,28
STUDY001,VS,STUDY001-SUBJ0032,26,HEIGHT,Height,164.0,cm,164.0,164.0,cm,,WEEK 8,6,2025-08-10,56
STUDY001,VS,STUDY001-SUBJ0032,27,WEIGHT,Weight,113.1,kg,113.1,113.1,kg,,WEEK 8,6,2025-08-10,56
STUDY001,VS,STUDY001-SUBJ0032,28,TEMP,Temperature,36.2,C,36.2,36.2,C,,WEEK 8,6,2025-08-10,56
STUDY001,VS,STUDY001-SUBJ0032,29,BP,Blood Pressure,98/89,mmHg,98/89,,mmHg,,WEEK 8,6,2025-08-10,56
STUDY001,VS,STUDY001-SUBJ0032,30,HR,Heart Rate,63,beats/min,63,63.0,beats/min,,WEEK 8,6,2025-08-10,56
STUDY001,VS,STUDY001-SUBJ0032,31,HEIGHT,Height,163.8,cm,163.8,163.8,cm,,WEEK 12,7,2025-09-07,84
STUDY001,VS,STUDY001-SUBJ0032,32,WEIGHT,Weight,111.3,kg,111.3,111.3,kg,,WEEK 12,7,2025-09-07,84
STUDY001,VS,STUDY001-SUBJ0032,33,TEMP,Temperature,36.3,C,36.3,36.3,C,,WEEK 12,7,2025-09-07,84
STUDY001,VS,STUDY001-SUBJ0032,34,BP,Blood Pressure,97/89,mmHg,97/89,,mmHg,,WEEK 12,7,2025-09-07,84
STUDY001,VS,STUDY001-SUBJ0032,35,HR,Heart Rate,57,beats/min,57,57.0,beats/min,,WEEK 12,7,2025-09-07,84
STUDY001,VS,STUDY001-SUBJ0032,36,HEIGHT,Height,164.2,cm,164.2,164.2,cm,,WEEK 16,8,2025-10-05,112
STUDY001,VS,STUDY001-SUBJ0032,37,WEIGHT,Weight,111.4,kg,111.4,111.4,kg,,WEEK 16,8,2025-10-05,112
STUDY001,VS,STUDY001-SUBJ0032,38,TEMP,Temperature,36.3,C,36.3,36.3,C,,WEEK 16,8,2025-10-05,112
STUDY001,VS,STUDY001-SUBJ0032,39,BP,Blood Pressure,102/94,mmHg,102/94,,mmHg,,WEEK 16,8,2025-10-05,112
STUDY001,VS,STUDY001-SUBJ0032,40,HR,Heart Rate,65,beats/min,65,65.0,beats/min,,WEEK 16,8,2025-10-05,112
STUDY001,VS,STUDY001-SUBJ0032,41,HEIGHT,Height,163.8,cm,163.8,163.8,cm,,END OF TREATMENT,9,2025-11-02,140
STUDY001,VS,STUDY001-SUBJ0032,42,WEIGHT,Weight,112.8,kg,112.8,112.8,kg,,END OF TREATMENT,9,2025-11-02,140
STUDY001,VS,STUDY001-SUBJ0032,43,TEMP,Temperature,36.6,C,36.6,36.6,C,,END OF TREATMENT,9,2025-11-02,140
STUDY001,VS,STUDY001-SUBJ0032,44,BP,Blood Pressure,98/94,mmHg,98/94,,mmHg,,END OF TREATMENT,9,2025-11-02,140
STUDY001,VS,STUDY001-SUBJ0032,45,HR,Heart Rate,56,beats/min,56,56.0,beats/min,,END OF TREATMENT,9,2025-11-02,140
STUDY001,VS,STUDY001-SUBJ0033,1,HEIGHT,Height,154.3,cm,154.3,154.3,cm,,SCREENING,1,2025-06-11,-14
STUDY001,VS,STUDY001-SUBJ0033,2,WEIGHT,Weight,73.8,kg,73.8,73.8,kg,,SCREENING,1,2025-06-11,-14
STUDY001,VS,STUDY001-SUBJ0033,3,TEMP,Temperature,37.0,C,37.0,37.0,C,,SCREENING,1,2025-06-11,-14
STUDY001,VS,STUDY001-SUBJ0033,4,BP,Blood Pressure,132/89,mmHg,132/89,,mmHg,,SCREENING,1,2025-06-11,-14
STUDY001,VS,STUDY001-SUBJ0033,5,HR,Heart Rate,84,beats/min,84,84.0,beats/min,,SCREENING,1,2025-06-11,-14
STUDY001,VS,STUDY001-SUBJ0033,6,HEIGHT,Height,154.1,cm,154.1,154.1,cm,Y,BASELINE,2,2025-06-25,1
STUDY001,VS,STUDY001-SUBJ0033,7,WEIGHT,Weight,73.1,kg,73.1,73.1,kg,Y,BASELINE,2,2025-06-25,1
STUDY001,VS,STUDY001-SUBJ0033,8,TEMP,Temperature,36.7,C,36.7,36.7,C,Y,BASELINE,2,2025-06-25,1
STUDY001,VS,STUDY001-SUBJ0033,9,BP,Blood Pressure,134/86,mmHg,134/86,,mmHg,Y,BASELINE,2,2025-06-25,1
STUDY001,VS,STUDY001-SUBJ0033,10,HR,Heart Rate,77,beats/min,77,77.0,beats/min,Y,BASELINE,2,2025-06-25,1
STUDY001,VS,STUDY001-SUBJ0033,11,HEIGHT,Height,154.2,cm,154.2,154.2,cm,,WEEK 1,3,2025-07-01,7
STUDY001,VS,STUDY001-SUBJ0033,12,WEIGHT,Weight,73.5,kg,73.5,73.5,kg,,WEEK 1,3,2025-07-01,7
STUDY001,VS,STUDY001-SUBJ0033,13,TEMP,Temperature,37.0,C,37.0,37.0,C,,WEEK 1,3,2025-07-01,7
STUDY001,VS,STUDY001-SUBJ0033,14,BP,Blood Pressure,139/88,mmHg,139/88,,mmHg,,WEEK 1,3,2025-07-01,7
STUDY001,VS,STUDY001-SUBJ0033,15,HR,Heart Rate,82,beats/min,82,82.0,beats/min,,WEEK 1,3,2025-07-01,7
STUDY001,VS,STUDY001-SUBJ0033,16,HEIGHT,Height,154.4,cm,154.4,154.4,cm,,WEEK 2,4,2025-07-08,14
STUDY001,VS,STUDY001-SUBJ0033,17,WEIGHT,Weight,72.8,kg,72.8,72.8,kg,,WEEK 2,4,2025-07-08,14
STUDY001,VS,STUDY001-SUBJ0033,18,TEMP,Temperature,37.1,C,37.1,37.1,C,,WEEK 2,4,2025-07-08,14
STUDY001,VS,STUDY001-SUBJ0033,19,BP,Blood Pressure,139/83,mmHg,139/83,,mmHg,,WEEK 2,4,2025-07-08,14
STUDY001,VS,STUDY001-SUBJ0033,20,HR,Heart Rate,83,beats/min,83,83.0,beats/min,,WEEK 2,4,2025-07-08,14
STUDY001,VS,STUDY001-SUBJ0033,21,HEIGHT,Height,154.3,cm,154.3,154.3,cm,,WEEK 4,5,2025-07-22,28
STUDY001,VS,STUDY001-SUBJ0033,22,WEIGHT,Weight,73.8,kg,73.8,73.8,kg,,WEEK 4,5,2025-07-22,28
STUDY001,VS,STUDY001-SUBJ0033,23,TEMP,Temperature,36.8,C,36.8,36.8,C,,WEEK 4,5,2025-07-22,28
STUDY001,VS,STUDY001-SUBJ0033,24,BP,Blood Pressure,135/82,mmHg,135/82,,mmHg,,WEEK 4,5,2025-07-22,28
STUDY001,VS,STUDY001-SUBJ0033,25,HR,Heart Rate,86,beats/min,86,86.0,beats/min,,WEEK 4,5,2025-07-22,28
STUDY001,VS,STUDY001-SUBJ0033,26,HEIGHT,Height,154.3,cm,154.3,154.3,cm,,WEEK 8,6,2025-08-19,56
STUDY001,VS,STUDY001-SUBJ0033,27,WEIGHT,Weight,73.8,kg,73.8,73.8,kg,,WEEK 8,6,2025-08-19,56
STUDY001,VS,STUDY001-SUBJ0033,28,TEMP,Temperature,36.7,C,36.7,36.7,C,,WEEK 8,6,2025-08-19,56
STUDY001,VS,STUDY001-SUBJ0033,29,BP,Blood Pressure,137/88,mmHg,137/88,,mmHg,,WEEK 8,6,2025-08-19,56
STUDY001,VS,STUDY001-SUBJ0033,30,HR,Heart Rate,83,beats/min,83,83.0,beats/min,,WEEK 8,6,2025-08-19,56
STUDY001,VS,STUDY001-SUBJ0033,31,HEIGHT,Height,154.5,cm,154.5,154.5,cm,,WEEK 12,7,2025-09-16,84
STUDY001,VS,STUDY001-SUBJ0033,32,WEIGHT,Weight,73.1,kg,73.1,73.1,kg,,WEEK 12,7,2025-09-16,84
STUDY001,VS,STUDY001-SUBJ0033,33,TEMP,Temperature,37.1,C,37.1,37.1,C,,WEEK 12,7,2025-09-16,84
STUDY001,VS,STUDY001-SUBJ0033,34,BP,Blood Pressure,140/90,mmHg,140/90,,mmHg,,WEEK 12,7,2025-09-16,84
STUDY001,VS,STUDY001-SUBJ0033,35,HR,Heart Rate,80,beats/min,80,80.0,beats/min,,WEEK 12,7,2025-09-16,84
STUDY001,VS,STUDY001-SUBJ0033,36,HEIGHT,Height,154.3,cm,154.3,154.3,cm,,WEEK 16,8,2025-10-14,112
STUDY001,VS,STUDY001-SUBJ0033,37,WEIGHT,Weight,74.2,kg,74.2,74.2,kg,,WEEK 16,8,2025-10-14,112
STUDY001,VS,STUDY001-SUBJ0033,38,TEMP,Temperature,37.0,C,37.0,37.0,C,,WEEK 16,8,2025-10-14,112
STUDY001,VS,STUDY001-SUBJ0033,39,BP,Blood Pressure,137/84,mmHg,137/84,,mmHg,,WEEK 16,8,2025-10-14,112
STUDY001,VS,STUDY001-SUBJ0033,40,HR,Heart Rate,78,beats/min,78,78.0,beats/min,,WEEK 16,8,2025-10-14,112
STUDY001,VS,STUDY001-SUBJ0033,41,HEIGHT,Height,154.3,cm,154.3,154.3,cm,,END OF TREATMENT,9,2025-11-11,140
STUDY001,VS,STUDY001-SUBJ0033,42,WEIGHT,Weight,73.7,kg,73.7,73.7,kg,,END OF TREATMENT,9,2025-11-11,140
STUDY001,VS,STUDY001-SUBJ0033,43,TEMP,Temperature,37.2,C,37.2,37.2,C,,END OF TREATMENT,9,2025-11-11,140
STUDY001,VS,STUDY001-SUBJ0033,44,BP,Blood Pressure,140/81,mmHg,140/81,,mmHg,,END OF TREATMENT,9,2025-11-11,140
STUDY001,VS,STUDY001-SUBJ0033,45,HR,Heart Rate,84,beats/min,84,84.0,beats/min,,END OF TREATMENT,9,2025-11-11,140
STUDY001,VS,STUDY001-SUBJ0034,1,HEIGHT,Height,179.5,cm,179.5,179.5,cm,,SCREENING,1,2025-08-17,-14
STUDY001,VS,STUDY001-SUBJ0034,2,WEIGHT,Weight,71.4,kg,71.4,71.4,kg,,SCREENING,1,2025-08-17,-14
STUDY001,VS,STUDY001-SUBJ0034,3,TEMP,Temperature,36.3,C,36.3,36.3,C,,SCREENING,1,2025-08-17,-14
STUDY001,VS,STUDY001-SUBJ0034,4,BP,Blood Pressure,137/94,mmHg,137/94,,mmHg,,SCREENING,1,2025-08-17,-14
STUDY001,VS,STUDY001-SUBJ0034,5,HR,Heart Rate,83,beats/min,83,83.0,beats/min,,SCREENING,1,2025-08-17,-14
STUDY001,VS,STUDY001-SUBJ0034,6,HEIGHT,Height,179.3,cm,179.3,179.3,cm,Y,BASELINE,2,2025-08-31,1
STUDY001,VS,STUDY001-SUBJ0034,7,WEIGHT,Weight,71.0,kg,71.0,71.0,kg,Y,BASELINE,2,2025-08-31,1
STUDY001,VS,STUDY001-SUBJ0034,8,TEMP,Temperature,36.1,C,36.1,36.1,C,Y,BASELINE,2,2025-08-31,1
STUDY001,VS,STUDY001-SUBJ0034,9,BP,Blood Pressure,137/93,mmHg,137/93,,mmHg,Y,BASELINE,2,2025-08-31,1
STUDY001,VS,STUDY001-SUBJ0034,10,HR,Heart Rate,82,beats/min,82,82.0,beats/min,Y,BASELINE,2,2025-08-31,1
STUDY001,VS,STUDY001-SUBJ0034,11,HEIGHT,Height,179.4,cm,179.4,179.4,cm,,WEEK 1,3,2025-09-06,7
STUDY001,VS,STUDY001-SUBJ0034,12,WEIGHT,Weight,70.6,kg,70.6,70.6,kg,,WEEK 1,3,2025-09-06,7
STUDY001,VS,STUDY001-SUBJ0034,13,TEMP,Temperature,36.4,C,36.4,36.4,C,,WEEK 1,3,2025-09-06,7
STUDY001,VS,STUDY001-SUBJ0034,14,BP,Blood Pressure,134/102,mmHg,134/102,,mmHg,,WEEK 1,3,2025-09-06,7
STUDY001,VS,STUDY001-SUBJ0034,15,HR,Heart Rate,81,beats/min,81,81.0,beats/min,,WEEK 1,3,2025-09-06,7
STUDY001,VS,STUDY001-SUBJ0034,16,HEIGHT,Height,179.6,cm,179.6,179.6,cm,,WEEK 2,4,2025-09-13,14
STUDY001,VS,STUDY001-SUBJ0034,17,WEIGHT,Weight,70.0,kg,70.0,70.0,kg,,WEEK 2,4,2025-09-13,14
STUDY001,VS,STUDY001-SUBJ0034,18,TEMP,Temperature,36.6,C,36.6,36.6,C,,WEEK 2,4,2025-09-13,14
STUDY001,VS,STUDY001-SUBJ0034,19,BP,Blood Pressure,135/101,mmHg,135/101,,mmHg,,WEEK 2,4,2025-09-13,14
STUDY001,VS,STUDY001-SUBJ0034,20,HR,Heart Rate,82,beats/min,82,82.0,beats/min,,WEEK 2,4,2025-09-13,14
STUDY001,VS,STUDY001-SUBJ0034,21,HEIGHT,Height,179.4,cm,179.4,179.4,cm,,WEEK 4,5,2025-09-27,28
STUDY001,VS,STUDY001-SUBJ0034,22,WEIGHT,Weight,70.4,kg,70.4,70.4,kg,,WEEK 4,5,2025-09-27,28
STUDY001,VS,STUDY001-SUBJ0034,23,TEMP,Temperature,36.1,C,36.1,36.1,C,,WEEK 4,5,2025-09-27,28
STUDY001,VS,STUDY001-SUBJ0034,24,BP,Blood Pressure,141/100,mmHg,141/100,,mmHg,,WEEK 4,5,2025-09-27,28
STUDY001,VS,STUDY001-SUBJ0034,25,HR,Heart Rate,78,beats/min,78,78.0,beats/min,,WEEK 4,5,2025-09-27,28
STUDY001,VS,STUDY001-SUBJ0034,26,HEIGHT,Height,179.6,cm,179.6,179.6,cm,,WEEK 8,6,2025-10-25,56
STUDY001,VS,STUDY001-SUBJ0034,27,WEIGHT,Weight,71.5,kg,71.5,71.5,kg,,WEEK 8,6,2025-10-25,56
STUDY001,VS,STUDY001-SUBJ0034,28,TEMP,Temperature,36.5,C,36.5,36.5,C,,WEEK 8,6,2025-10-25,56
STUDY001,VS,STUDY001-SUBJ0034,29,BP,Blood Pressure,136/96,mmHg,136/96,,mmHg,,WEEK 8,6,2025-10-25,56
STUDY001,VS,STUDY001-SUBJ0034,30,HR,Heart Rate,79,beats/min,79,79.0,beats/min,,WEEK 8,6,2025-10-25,56
STUDY001,VS,STUDY001-SUBJ0034,31,HEIGHT,Height,179.6,cm,179.6,179.6,cm,,WEEK 12,7,2025-11-22,84
STUDY001,VS,STUDY001-SUBJ0034,32,WEIGHT,Weight,69.8,kg,69.8,69.8,kg,,WEEK 12,7,2025-11-22,84
STUDY001,VS,STUDY001-SUBJ0034,33,TEMP,Temperature,36.4,C,36.4,36.4,C,,WEEK 12,7,2025-11-22,84
STUDY001,VS,STUDY001-SUBJ0034,34,BP,Blood Pressure,141/95,mmHg,141/95,,mmHg,,WEEK 12,7,2025-11-22,84
STUDY001,VS,STUDY001-SUBJ0034,35,HR,Heart Rate,83,beats/min,83,83.0,beats/min,,WEEK 12,7,2025-11-22,84
STUDY001,VS,STUDY001-SUBJ0034,36,HEIGHT,Height,179.5,cm,179.5,179.5,cm,,WEEK 16,8,2025-12-20,112
STUDY001,VS,STUDY001-SUBJ0034,37,WEIGHT,Weight,71.1,kg,71.1,71.1,kg,,WEEK 16,8,2025-12-20,112
STUDY001,VS,STUDY001-SUBJ0034,38,TEMP,Temperature,36.5,C,36.5,36.5,C,,WEEK 16,8,2025-12-20,112
STUDY001,VS,STUDY001-SUBJ0034,39,BP,Blood Pressure,141/94,mmHg,141/94,,mmHg,,WEEK 16,8,2025-12-20,112
STUDY001,VS,STUDY001-SUBJ0034,40,HR,Heart Rate,80,beats/min,80,80.0,beats/min,,WEEK 16,8,2025-12-20,112
STUDY001,VS,STUDY001-SUBJ0034,41,HEIGHT,Height,179.4,cm,179.4,179.4,cm,,END OF TREATMENT,9,2026-01-17,140
STUDY001,VS,STUDY001-SUBJ0034,42,WEIGHT,Weight,69.8,kg,69.8,69.8,kg,,END OF TREATMENT,9,2026-01-17,140
STUDY001,VS,STUDY001-SUBJ0034,43,TEMP,Temperature,36.3,C,36.3,36.3,C,,END OF TREATMENT,9,2026-01-17,140
STUDY001,VS,STUDY001-SUBJ0034,44,BP,Blood Pressure,134/101,mmHg,134/101,,mmHg,,END OF TREATMENT,9,2026-01-17,140
STUDY001,VS,STUDY001-SUBJ0034,45,HR,Heart Rate,80,beats/min,80,80.0,beats/min,,END OF TREATMENT,9,2026-01-17,140
STUDY001,VS,STUDY001-SUBJ0035,1,HEIGHT,Height,156.0,cm,156.0,156.0,cm,,SCREENING,1,2025-04-20,-14
STUDY001,VS,STUDY001-SUBJ0035,2,WEIGHT,Weight,92.8,kg,92.8,92.8,kg,,SCREENING,1,2025-04-20,-14
STUDY001,VS,STUDY001-SUBJ0035,3,TEMP,Temperature,36.9,C,36.9,36.9,C,,SCREENING,1,2025-04-20,-14
STUDY001,VS,STUDY001-SUBJ0035,4,BP,Blood Pressure,137/86,mmHg,137/86,,mmHg,,SCREENING,1,2025-04-20,-14
STUDY001,VS,STUDY001-SUBJ0035,5,HR,Heart Rate,65,beats/min,65,65.0,beats/min,,SCREENING,1,2025-04-20,-14
STUDY001,VS,STUDY001-SUBJ0035,6,HEIGHT,Height,155.8,cm,155.8,155.8,cm,Y,BASELINE,2,2025-05-04,1
STUDY001,VS,STUDY001-SUBJ0035,7,WEIGHT,Weight,92.4,kg,92.4,92.4,kg,Y,BASELINE,2,2025-05-04,1
STUDY001,VS,STUDY001-SUBJ0035,8,TEMP,Temperature,36.7,C,36.7,36.7,C,Y,BASELINE,2,2025-05-04,1
STUDY001,VS,STUDY001-SUBJ0035,9,BP,Blood Pressure,142/86,mmHg,142/86,,mmHg,Y,BASELINE,2,2025-05-04,1
STUDY001,VS,STUDY001-SUBJ0035,10,HR,Heart Rate,63,beats/min,63,63.0,beats/min,Y,BASELINE,2,2025-05-04,1
STUDY001,VS,STUDY001-SUBJ0035,11,HEIGHT,Height,156.1,cm,156.1,156.1,cm,,WEEK 1,3,2025-05-10,7
STUDY001,VS,STUDY001-SUBJ0035,12,WEIGHT,Weight,92.7,kg,92.7,92.7,kg,,WEEK 1,3,2025-05-10,7
STUDY001,VS,STUDY001-SUBJ0035,13,TEMP,Temperature,37.1,C,37.1,37.1,C,,WEEK 1,3,2025-05-10,7
STUDY001,VS,STUDY001-SUBJ0035,14,BP,Blood Pressure,134/86,mmHg,134/86,,mmHg,,WEEK 1,3,2025-05-10,7
STUDY001,VS,STUDY001-SUBJ0035,15,HR,Heart Rate,67,beats/min,67,67.0,beats/min,,WEEK 1,3,2025-05-10,7
STUDY001,VS,STUDY001-SUBJ0035,16,HEIGHT,Height,156.1,cm,156.1,156.1,cm,,WEEK 2,4,2025-05-17,14
STUDY001,VS,STUDY001-SUBJ0035,17,WEIGHT,Weight,93.1,kg,93.1,93.1,kg,,WEEK 2,4,2025-05-17,14
STUDY001,VS,STUDY001-SUBJ0035,18,TEMP,Temperature,36.8,C,36.8,36.8,C,,WEEK 2,4,2025-05-17,14
STUDY001,VS,STUDY001-SUBJ0035,19,BP,Blood Pressure,137/84,mmHg,137/84,,mmHg,,WEEK 2,4,2025-05-17,14
STUDY001,VS,STUDY001-SUBJ0035,20,HR,Heart Rate,67,beats/min,67,67.0,beats/min,,WEEK 2,4,2025-05-17,14
STUDY001,VS,STUDY001-SUBJ0035,21,HEIGHT,Height,156.1,cm,156.1,156.1,cm,,WEEK 4,5,2025-05-31,28
STUDY001,VS,STUDY001-SUBJ0035,22,WEIGHT,Weight,94.0,kg,94.0,94.0,kg,,WEEK 4,5,2025-05-31,28
STUDY001,VS,STUDY001-SUBJ0035,23,TEMP,Temperature,36.7,C,36.7,36.7,C,,WEEK 4,5,2025-05-31,28
STUDY001,VS,STUDY001-SUBJ0035,24,BP,Blood Pressure,139/85,mmHg,139/85,,mmHg,,WEEK 4,5,2025-05-31,28
STUDY001,VS,STUDY001-SUBJ0035,25,HR,Heart Rate,62,beats/min,62,62.0,beats/min,,WEEK 4,5,2025-05-31,28
STUDY001,VS,STUDY001-SUBJ0035,26,HEIGHT,Height,156.1,cm,156.1,156.1,cm,,WEEK 8,6,2025-06-28,56
STUDY001,VS,STUDY001-SUBJ0035,27,WEIGHT,Weight,94.1,kg,94.1,94.1,kg,,WEEK 8,6,2025-06-28,56
STUDY001,VS,STUDY001-SUBJ0035,28,TEMP,Temperature,37.0,C,37.0,37.0,C,,WEEK 8,6,2025-06-28,56
STUDY001,VS,STUDY001-SUBJ0035,29,BP,Blood Pressure,142/86,mmHg,142/86,,mmHg,,WEEK 8,6,2025-06-28,56
STUDY001,VS,STUDY001-SUBJ0035,30,HR,Heart Rate,60,beats/min,60,60.0,beats/min,,WEEK 8,6,2025-06-28,56
STUDY001,VS,STUDY001-SUBJ0035,31,HEIGHT,Height,155.9,cm,155.9,155.9,cm,,WEEK 12,7,2025-07-26,84
STUDY001,VS,STUDY001-SUBJ0035,32,WEIGHT,Weight,92.6,kg,92.6,92.6,kg,,WEEK 12,7,2025-07-26,84
STUDY001,VS,STUDY001-SUBJ0035,33,TEMP,Temperature,37.1,C,37.1,37.1,C,,WEEK 12,7,2025-07-26,84
STUDY001,VS,STUDY001-SUBJ0035,34,BP,Blood Pressure,140/81,mmHg,140/81,,mmHg,,WEEK 12,7,2025-07-26,84
STUDY001,VS,STUDY001-SUBJ0035,35,HR,Heart Rate,65,beats/min,65,65.0,beats/min,,WEEK 12,7,2025-07-26,84
STUDY001,VS,STUDY001-SUBJ0035,36,HEIGHT,Height,155.8,cm,155.8,155.8,cm,,WEEK 16,8,2025-08-23,112
STUDY001,VS,STUDY001-SUBJ0035,37,WEIGHT,Weight,93.9,kg,93.9,93.9,kg,,WEEK 16,8,2025-08-23,112
STUDY001,VS,STUDY001-SUBJ0035,38,TEMP,Temperature,36.7,C,36.7,36.7,C,,WEEK 16,8,2025-08-23,112
STUDY001,VS,STUDY001-SUBJ0035,39,BP,Blood Pressure,140/85,mmHg,140/85,,mmHg,,WEEK 16,8,2025-08-23,112
STUDY001,VS,STUDY001-SUBJ0035,40,HR,Heart Rate,66,beats/min,66,66.0,beats/min,,WEEK 16,8,2025-08-23,112
STUDY001,VS,STUDY001-SUBJ0035,41,HEIGHT,Height,155.9,cm,155.9,155.9,cm,,END OF TREATMENT,9,2025-09-20,140
STUDY001,VS,STUDY001-SUBJ0035,42,WEIGHT,Weight,93.9,kg,93.9,93.9,kg,,END OF TREATMENT,9,2025-09-20,140
STUDY001,VS,STUDY001-SUBJ0035,43,TEMP,Temperature,36.9,C,36.9,36.9,C,,END OF TREATMENT,9,2025-09-20,140
STUDY001,VS,STUDY001-SUBJ0035,44,BP,Blood Pressure,140/81,mmHg,140/81,,mmHg,,END OF TREATMENT,9,2025-09-20,140
STUDY001,VS,STUDY001-SUBJ0035,45,HR,Heart Rate,61,beats/min,61,61.0,beats/min,,END OF TREATMENT,9,2025-09-20,140
STUDY001,VS,STUDY001-SUBJ0036,1,HEIGHT,Height,152.4,cm,152.4,152.4,cm,,SCREENING,1,2024-12-30,-14
STUDY001,VS,STUDY001-SUBJ0036,2,WEIGHT,Weight,82.4,kg,82.4,82.4,kg,,SCREENING,1,2024-12-30,-14
STUDY001,VS,STUDY001-SUBJ0036,3,TEMP,Temperature,36.6,C,36.6,36.6,C,,SCREENING,1,2024-12-30,-14
STUDY001,VS,STUDY001-SUBJ0036,4,BP,Blood Pressure,135/77,mmHg,135/77,,mmHg,,SCREENING,1,2024-12-30,-14
STUDY001,VS,STUDY001-SUBJ0036,5,HR,Heart Rate,65,beats/min,65,65.0,beats/min,,SCREENING,1,2024-12-30,-14
STUDY001,VS,STUDY001-SUBJ0036,6,HEIGHT,Height,152.3,cm,152.3,152.3,cm,Y,BASELINE,2,2025-01-13,1
STUDY001,VS,STUDY001-SUBJ0036,7,WEIGHT,Weight,81.9,kg,81.9,81.9,kg,Y,BASELINE,2,2025-01-13,1
STUDY001,VS,STUDY001-SUBJ0036,8,TEMP,Temperature,36.5,C,36.5,36.5,C,Y,BASELINE,2,2025-01-13,1
STUDY001,VS,STUDY001-SUBJ0036,9,BP,Blood Pressure,138/82,mmHg,138/82,,mmHg,Y,BASELINE,2,2025-01-13,1
STUDY001,VS,STUDY001-SUBJ0036,10,HR,Heart Rate,65,beats/min,65,65.0,beats/min,Y,BASELINE,2,2025-01-13,1
STUDY001,VS,STUDY001-SUBJ0036,11,HEIGHT,Height,152.4,cm,152.4,152.4,cm,,WEEK 1,3,2025-01-19,7
STUDY001,VS,STUDY001-SUBJ0036,12,WEIGHT,Weight,82.2,kg,82.2,82.2,kg,,WEEK 1,3,2025-01-19,7
STUDY001,VS,STUDY001-SUBJ0036,13,TEMP,Temperature,36.5,C,36.5,36.5,C,,WEEK 1,3,2025-01-19,7
STUDY001,VS,STUDY001-SUBJ0036,14,BP,Blood Pressure,137/84,mmHg,137/84,,mmHg,,WEEK 1,3,2025-01-19,7
STUDY001,VS,STUDY001-SUBJ0036,15,HR,Heart Rate,64,beats/min,64,64.0,beats/min,,WEEK 1,3,2025-01-19,7
STUDY001,VS,STUDY001-SUBJ0036,16,HEIGHT,Height,152.5,cm,152.5,152.5,cm,,WEEK 2,4,2025-01-26,14
STUDY001,VS,STUDY001-SUBJ0036,17,WEIGHT,Weight,82.6,kg,82.6,82.6,kg,,WEEK 2,4,2025-01-26,14
STUDY001,VS,STUDY001-SUBJ0036,18,TEMP,Temperature,36.2,C,36.2,36.2,C,,WEEK 2,4,2025-01-26,14
STUDY001,VS,STUDY001-SUBJ0036,19,BP,Blood Pressure,140/85,mmHg,140/85,,mmHg,,WEEK 2,4,2025-01-26,14
STUDY001,VS,STUDY001-SUBJ0036,20,HR,Heart Rate,71,beats/min,71,71.0,beats/min,,WEEK 2,4,2025-01-26,14
STUDY001,VS,STUDY001-SUBJ0036,21,HEIGHT,Height,152.2,cm,152.2,152.2,cm,,WEEK 4,5,2025-02-09,28
STUDY001,VS,STUDY001-SUBJ0036,22,WEIGHT,Weight,83.4,kg,83.4,83.4,kg,,WEEK 4,5,2025-02-09,28
STUDY001,VS,STUDY001-SUBJ0036,23,TEMP,Temperature,36.3,C,36.3,36.3,C,,WEEK 4,5,2025-02-09,28
STUDY001,VS,STUDY001-SUBJ0036,24,BP,Blood Pressure,139/79,mmHg,139/79,,mmHg,,WEEK 4,5,2025-02-09,28
STUDY001,VS,STUDY001-SUBJ0036,25,HR,Heart Rate,68,beats/min,68,68.0,beats/min,,WEEK 4,5,2025-02-09,28
STUDY001,VS,STUDY001-SUBJ0036,26,HEIGHT,Height,152.6,cm,152.6,152.6,cm,,WEEK 8,6,2025-03-09,56
STUDY001,VS,STUDY001-SUBJ0036,27,WEIGHT,Weight,82.3,kg,82.3,82.3,kg,,WEEK 8,6,2025-03-09,56
STUDY001,VS,STUDY001-SUBJ0036,28,TEMP,Temperature,36.5,C,36.5,36.5,C,,WEEK 8,6,2025-03-09,56
STUDY001,VS,STUDY001-SUBJ0036,29,BP,Blood Pressure,135/86,mmHg,135/86,,mmHg,,WEEK 8,6,2025-03-09,56
STUDY001,VS,STUDY001-SUBJ0036,30,HR,Heart Rate,68,beats/min,68,68.0,beats/min,,WEEK 8,6,2025-03-09,56
STUDY001,VS,STUDY001-SUBJ0036,31,HEIGHT,Height,152.2,cm,152.2,152.2,cm,,WEEK 12,7,2025-04-06,84
STUDY001,VS,STUDY001-SUBJ0036,32,WEIGHT,Weight,82.2,kg,82.2,82.2,kg,,WEEK 12,7,2025-04-06,84
STUDY001,VS,STUDY001-SUBJ0036,33,TEMP,Temperature,36.3,C,36.3,36.3,C,,WEEK 12,7,2025-04-06,84
STUDY001,VS,STUDY001-SUBJ0036,34,BP,Blood Pressure,144/84,mmHg,144/84,,mmHg,,WEEK 12,7,2025-04-06,84
STUDY001,VS,STUDY001-SUBJ0036,35,HR,Heart Rate,70,beats/min,70,70.0,beats/min,,WEEK 12,7,2025-04-06,84
STUDY001,VS,STUDY001-SUBJ0036,36,HEIGHT,Height,152.2,cm,152.2,152.2,cm,,WEEK 16,8,2025-05-04,112
STUDY001,VS,STUDY001-SUBJ0036,37,WEIGHT,Weight,83.1,kg,83.1,83.1,kg,,WEEK 16,8,2025-05-04,112
STUDY001,VS,STUDY001-SUBJ0036,38,TEMP,Temperature,36.5,C,36.5,36.5,C,,WEEK 16,8,2025-05-04,112
STUDY001,VS,STUDY001-SUBJ0036,39,BP,Blood Pressure,140/78,mmHg,140/78,,mmHg,,WEEK 16,8,2025-05-04,112
STUDY001,VS,STUDY001-SUBJ0036,40,HR,Heart Rate,65,beats/min,65,65.0,beats/min,,WEEK 16,8,2025-05-04,112
STUDY001,VS,STUDY001-SUBJ0036,41,HEIGHT,Height,152.3,cm,152.3,152.3,cm,,END OF TREATMENT,9,2025-06-01,140
STUDY001,VS,STUDY001-SUBJ0036,42,WEIGHT,Weight,82.7,kg,82.7,82.7,kg,,END OF TREATMENT,9,2025-06-01,140
STUDY001,VS,STUDY001-SUBJ0036,43,TEMP,Temperature,36.5,C,36.5,36.5,C,,END OF TREATMENT,9,2025-06-01,140
STUDY001,VS,STUDY001-SUBJ0036,44,BP,Blood Pressure,144/84,mmHg,144/84,,mmHg,,END OF TREATMENT,9,2025-06-01,140
STUDY001,VS,STUDY001-SUBJ0036,45,HR,Heart Rate,71,beats/min,71,71.0,beats/min,,END OF TREATMENT,9,2025-06-01,140
STUDY001,VS,STUDY001-SUBJ0037,1,HEIGHT,Height,157.3,cm,157.3,157.3,cm,,SCREENING,1,2025-09-20,-14
STUDY001,VS,STUDY001-SUBJ0037,2,WEIGHT,Weight,73.1,kg,73.1,73.1,kg,,SCREENING,1,2025-09-20,-14
STUDY001,VS,STUDY001-SUBJ0037,3,TEMP,Temperature,35.9,C,35.9,35.9,C,,SCREENING,1,2025-09-20,-14
STUDY001,VS,STUDY001-SUBJ0037,4,BP,Blood Pressure,126/84,mmHg,126/84,,mmHg,,SCREENING,1,2025-09-20,-14
STUDY001,VS,STUDY001-SUBJ0037,5,HR,Heart Rate,73,beats/min,73,73.0,beats/min,,SCREENING,1,2025-09-20,-14
STUDY001,VS,STUDY001-SUBJ0037,6,HEIGHT,Height,157.4,cm,157.4,157.4,cm,Y,BASELINE,2,2025-10-04,1
STUDY001,VS,STUDY001-SUBJ0037,7,WEIGHT,Weight,73.7,kg,73.7,73.7,kg,Y,BASELINE,2,2025-10-04,1
STUDY001,VS,STUDY001-SUBJ0037,8,TEMP,Temperature,36.2,C,36.2,36.2,C,Y,BASELINE,2,2025-10-04,1
STUDY001,VS,STUDY001-SUBJ0037,9,BP,Blood Pressure,128/78,mmHg,128/78,,mmHg,Y,BASELINE,2,2025-10-04,1
STUDY001,VS,STUDY001-SUBJ0037,10,HR,Heart Rate,70,beats/min,70,70.0,beats/min,Y,BASELINE,2,2025-10-04,1
STUDY001,VS,STUDY001-SUBJ0037,11,HEIGHT,Height,157.3,cm,157.3,157.3,cm,,WEEK 1,3,2025-10-10,7
STUDY001,VS,STUDY001-SUBJ0037,12,WEIGHT,Weight,74.4,kg,74.4,74.4,kg,,WEEK 1,3,2025-10-10,7
STUDY001,VS,STUDY001-SUBJ0037,13,TEMP,Temperature,36.0,C,36.0,36.0,C,,WEEK 1,3,2025-10-10,7
STUDY001,VS,STUDY001-SUBJ0037,14,BP,Blood Pressure,124/81,mmHg,124/81,,mmHg,,WEEK 1,3,2025-10-10,7
STUDY001,VS,STUDY001-SUBJ0037,15,HR,Heart Rate,70,beats/min,70,70.0,beats/min,,WEEK 1,3,2025-10-10,7
STUDY001,VS,STUDY001-SUBJ0037,16,HEIGHT,Height,157.1,cm,157.1,157.1,cm,,WEEK 2,4,2025-10-17,14
STUDY001,VS,STUDY001-SUBJ0037,17,WEIGHT,Weight,73.8,kg,73.8,73.8,kg,,WEEK 2,4,2025-10-17,14
STUDY001,VS,STUDY001-SUBJ0037,18,TEMP,Temperature,35.9,C,35.9,35.9,C,,WEEK 2,4,2025-10-17,14
STUDY001,VS,STUDY001-SUBJ0037,19,BP,Blood Pressure,120/79,mmHg,120/79,,mmHg,,WEEK 2,4,2025-10-17,14
STUDY001,VS,STUDY001-SUBJ0037,20,HR,Heart Rate,77,beats/min,77,77.0,beats/min,,WEEK 2,4,2025-10-17,14
STUDY001,VS,STUDY001-SUBJ0037,21,HEIGHT,Height,157.4,cm,157.4,157.4,cm,,WEEK 4,5,2025-10-31,28
STUDY001,VS,STUDY001-SUBJ0037,22,WEIGHT,Weight,73.7,kg,73.7,73.7,kg,,WEEK 4,5,2025-10-31,28
STUDY001,VS,STUDY001-SUBJ0037,23,TEMP,Temperature,36.3,C,36.3,36.3,C,,WEEK 4,5,2025-10-31,28
STUDY001,VS,STUDY001-SUBJ0037,24,BP,Blood Pressure,123/83,mmHg,123/83,,mmHg,,WEEK 4,5,2025-10-31,28
STUDY001,VS,STUDY001-SUBJ0037,25,HR,Heart Rate,68,beats/min,68,68.0,beats/min,,WEEK 4,5,2025-10-31,28
STUDY001,VS,STUDY001-SUBJ0037,26,HEIGHT,Height,157.4,cm,157.4,157.4,cm,,WEEK 8,6,2025-11-28,56
STUDY001,VS,STUDY001-SUBJ0037,27,WEIGHT,Weight,73.8,kg,73.8,73.8,kg,,WEEK 8,6,2025-11-28,56
STUDY001,VS,STUDY001-SUBJ0037,28,TEMP,Temperature,36.4,C,36.4,36.4,C,,WEEK 8,6,2025-11-28,56
STUDY001,VS,STUDY001-SUBJ0037,29,BP,Blood Pressure,128/88,mmHg,128/88,,mmHg,,WEEK 8,6,2025-11-28,56
STUDY001,VS,STUDY001-SUBJ0037,30,HR,Heart Rate,74,beats/min,74,74.0,beats/min,,WEEK 8,6,2025-11-28,56
STUDY001,VS,STUDY001-SUBJ0037,31,HEIGHT,Height,157.4,cm,157.4,157.4,cm,,WEEK 12,7,2025-12-26,84
STUDY001,VS,STUDY001-SUBJ0037,32,WEIGHT,Weight,74.1,kg,74.1,74.1,kg,,WEEK 12,7,2025-12-26,84
STUDY001,VS,STUDY001-SUBJ0037,33,TEMP,Temperature,36.1,C,36.1,36.1,C,,WEEK 12,7,2025-12-26,84
STUDY001,VS,STUDY001-SUBJ0037,34,BP,Blood Pressure,128/78,mmHg,128/78,,mmHg,,WEEK 12,7,2025-12-26,84
STUDY001,VS,STUDY001-SUBJ0037,35,HR,Heart Rate,71,beats/min,71,71.0,beats/min,,WEEK 12,7,2025-12-26,84
STUDY001,VS,STUDY001-SUBJ0037,36,HEIGHT,Height,157.2,cm,157.2,157.2,cm,,WEEK 16,8,2026-01-23,112
STUDY001,VS,STUDY001-SUBJ0037,37,WEIGHT,Weight,74.1,kg,74.1,74.1,kg,,WEEK 16,8,2026-01-23,112
STUDY001,VS,STUDY001-SUBJ0037,38,TEMP,Temperature,35.9,C,35.9,35.9,C,,WEEK 16,8,2026-01-23,112
STUDY001,VS,STUDY001-SUBJ0037,39,BP,Blood Pressure,125/79,mmHg,125/79,,mmHg,,WEEK 16,8,2026-01-23,112
STUDY001,VS,STUDY001-SUBJ0037,40,HR,Heart Rate,72,beats/min,72,72.0,beats/min,,WEEK 16,8,2026-01-23,112
STUDY001,VS,STUDY001-SUBJ0037,41,HEIGHT,Height,157.3,cm,157.3,157.3,cm,,END OF TREATMENT,9,2026-02-20,140
STUDY001,VS,STUDY001-SUBJ0037,42,WEIGHT,Weight,73.1,kg,73.1,73.1,kg,,END OF TREATMENT,9,2026-02-20,140
STUDY001,VS,STUDY001-SUBJ0037,43,TEMP,Temperature,36.4,C,36.4,36.4,C,,END OF TREATMENT,9,2026-02-20,140
STUDY001,VS,STUDY001-SUBJ0037,44,BP,Blood Pressure,122/83,mmHg,122/83,,mmHg,,END OF TREATMENT,9,2026-02-20,140
STUDY001,VS,STUDY001-SUBJ0037,45,HR,Heart Rate,72,beats/min,72,72.0,beats/min,,END OF TREATMENT,9,2026-02-20,140
STUDY001,VS,STUDY001-SUBJ0038,1,HEIGHT,Height,184.8,cm,184.8,184.8,cm,,SCREENING,1,2025-03-07,-14
STUDY001,VS,STUDY001-SUBJ0038,2,WEIGHT,Weight,98.4,kg,98.4,98.4,kg,,SCREENING,1,2025-03-07,-14
STUDY001,VS,STUDY001-SUBJ0038,3,TEMP,Temperature,36.1,C,36.1,36.1,C,,SCREENING,1,2025-03-07,-14
STUDY001,VS,STUDY001-SUBJ0038,4,BP,Blood Pressure,130/73,mmHg,130/73,,mmHg,,SCREENING,1,2025-03-07,-14
STUDY001,VS,STUDY001-SUBJ0038,5,HR,Heart Rate,59,beats/min,59,59.0,beats/min,,SCREENING,1,2025-03-07,-14
STUDY001,VS,STUDY001-SUBJ0038,6,HEIGHT,Height,184.7,cm,184.7,184.7,cm,Y,BASELINE,2,2025-03-21,1
STUDY001,VS,STUDY001-SUBJ0038,7,WEIGHT,Weight,96.9,kg,96.9,96.9,kg,Y,BASELINE,2,2025-03-21,1
STUDY001,VS,STUDY001-SUBJ0038,8,TEMP,Temperature,36.1,C,36.1,36.1,C,Y,BASELINE,2,2025-03-21,1
STUDY001,VS,STUDY001-SUBJ0038,9,BP,Blood Pressure,135/75,mmHg,135/75,,mmHg,Y,BASELINE,2,2025-03-21,1
STUDY001,VS,STUDY001-SUBJ0038,10,HR,Heart Rate,64,beats/min,64,64.0,beats/min,Y,BASELINE,2,2025-03-21,1
STUDY001,VS,STUDY001-SUBJ0038,11,HEIGHT,Height,184.9,cm,184.9,184.9,cm,,WEEK 1,3,2025-03-27,7
STUDY001,VS,STUDY001-SUBJ0038,12,WEIGHT,Weight,98.0,kg,98.0,98.0,kg,,WEEK 1,3,2025-03-27,7
STUDY001,VS,STUDY001-SUBJ0038,13,TEMP,Temperature,36.3,C,36.3,36.3,C,,WEEK 1,3,2025-03-27,7
STUDY001,VS,STUDY001-SUBJ0038,14,BP,Blood Pressure,126/80,mmHg,126/80,,mmHg,,WEEK 1,3,2025-03-27,7
STUDY001,VS,STUDY001-SUBJ0038,15,HR,Heart Rate,65,beats/min,65,65.0,beats/min,,WEEK 1,3,2025-03-27,7
STUDY001,VS,STUDY001-SUBJ0038,16,HEIGHT,Height,185.0,cm,185.0,185.0,cm,,WEEK 2,4,2025-04-03,14
STUDY001,VS,STUDY001-SUBJ0038,17,WEIGHT,Weight,98.2,kg,98.2,98.2,kg,,WEEK 2,4,2025-04-03,14
STUDY001,VS,STUDY001-SUBJ0038,18,TEMP,Temperature,36.4,C,36.4,36.4,C,,WEEK 2,4,2025-04-03,14
STUDY001,VS,STUDY001-SUBJ0038,19,BP,Blood Pressure,130/72,mmHg,130/72,,mmHg,,WEEK 2,4,2025-04-03,14
STUDY001,VS,STUDY001-SUBJ0038,20,HR,Heart Rate,61,beats/min,61,61.0,beats/min,,WEEK 2,4,2025-04-03,14
STUDY001,VS,STUDY001-SUBJ0038,21,HEIGHT,Height,184.7,cm,184.7,184.7,cm,,WEEK 4,5,2025-04-17,28
STUDY001,VS,STUDY001-SUBJ0038,22,WEIGHT,Weight,98.5,kg,98.5,98.5,kg,,WEEK 4,5,2025-04-17,28
STUDY001,VS,STUDY001-SUBJ0038,23,TEMP,Temperature,36.1,C,36.1,36.1,C,,WEEK 4,5,2025-04-17,28
STUDY001,VS,STUDY001-SUBJ0038,24,BP,Blood Pressure,125/72,mmHg,125/72,,mmHg,,WEEK 4,5,2025-04-17,28
STUDY001,VS,STUDY001-SUBJ0038,25,HR,Heart Rate,60,beats/min,60,60.0,beats/min,,WEEK 4,5,2025-04-17,28
STUDY001,VS,STUDY001-SUBJ0038,26,HEIGHT,Height,184.7,cm,184.7,184.7,cm,,WEEK 8,6,2025-05-15,56
STUDY001,VS,STUDY001-SUBJ0038,27,WEIGHT,Weight,97.4,kg,97.4,97.4,kg,,WEEK 8,6,2025-05-15,56
STUDY001,VS,STUDY001-SUBJ0038,28,TEMP,Temperature,36.3,C,36.3,36.3,C,,WEEK 8,6,2025-05-15,56
STUDY001,VS,STUDY001-SUBJ0038,29,BP,Blood Pressure,133/74,mmHg,133/74,,mmHg,,WEEK 8,6,2025-05-15,56
STUDY001,VS,STUDY001-SUBJ0038,30,HR,Heart Rate,63,beats/min,63,63.0,beats/min,,WEEK 8,6,2025-05-15,56
STUDY001,VS,STUDY001-SUBJ0038,31,HEIGHT,Height,184.8,cm,184.8,184.8,cm,,WEEK 12,7,2025-06-12,84
STUDY001,VS,STUDY001-SUBJ0038,32,WEIGHT,Weight,97.8,kg,97.8,97.8,kg,,WEEK 12,7,2025-06-12,84
STUDY001,VS,STUDY001-SUBJ0038,33,TEMP,Temperature,36.3,C,36.3,36.3,C,,WEEK 12,7,2025-06-12,84
STUDY001,VS,STUDY001-SUBJ0038,34,BP,Blood Pressure,132/79,mmHg,132/79,,mmHg,,WEEK 12,7,2025-06-12,84
STUDY001,VS,STUDY001-SUBJ0038,35,HR,Heart Rate,65,beats/min,65,65.0,beats/min,,WEEK 12,7,2025-06-12,84
STUDY001,VS,STUDY001-SUBJ0038,36,HEIGHT,Height,184.9,cm,184.9,184.9,cm,,WEEK 16,8,2025-07-10,112
STUDY001,VS,STUDY001-SUBJ0038,37,WEIGHT,Weight,98.2,kg,98.2,98.2,kg,,WEEK 16,8,2025-07-10,112
STUDY001,VS,STUDY001-SUBJ0038,38,TEMP,Temperature,35.9,C,35.9,35.9,C,,WEEK 16,8,2025-07-10,112
STUDY001,VS,STUDY001-SUBJ0038,39,BP,Blood Pressure,126/79,mmHg,126/79,,mmHg,,WEEK 16,8,2025-07-10,112
STUDY001,VS,STUDY001-SUBJ0038,40,HR,Heart Rate,63,beats/min,63,63.0,beats/min,,WEEK 16,8,2025-07-10,112
STUDY001,VS,STUDY001-SUBJ0038,41,HEIGHT,Height,184.8,cm,184.8,184.8,cm,,END OF TREATMENT,9,2025-08-07,140
STUDY001,VS,STUDY001-SUBJ0038,42,WEIGHT,Weight,98.0,kg,98.0,98.0,kg,,END OF TREATMENT,9,2025-08-07,140
STUDY001,VS,STUDY001-SUBJ0038,43,TEMP,Temperature,35.9,C,35.9,35.9,C,,END OF TREATMENT,9,2025-08-07,140
STUDY001,VS,STUDY001-SUBJ0038,44,BP,Blood Pressure,131/75,mmHg,131/75,,mmHg,,END OF TREATMENT,9,2025-08-07,140
STUDY001,VS,STUDY001-SUBJ0038,45,HR,Heart Rate,62,beats/min,62,62.0,beats/min,,END OF TREATMENT,9,2025-08-07,140
STUDY001,VS,STUDY001-SUBJ0039,1,HEIGHT,Height,176.1,cm,176.1,176.1,cm,,SCREENING,1,2025-08-28,-14
STUDY001,VS,STUDY001-SUBJ0039,2,WEIGHT,Weight,52.0,kg,52.0,52.0,kg,,SCREENING,1,2025-08-28,-14
STUDY001,VS,STUDY001-SUBJ0039,3,TEMP,Temperature,36.5,C,36.5,36.5,C,,SCREENING,1,2025-08-28,-14
STUDY001,VS,STUDY001-SUBJ0039,4,BP,Blood Pressure,113/91,mmHg,113/91,,mmHg,,SCREENING,1,2025-08-28,-14
STUDY001,VS,STUDY001-SUBJ0039,5,HR,Heart Rate,81,beats/min,81,81.0,beats/min,,SCREENING,1,2025-08-28,-14
STUDY001,VS,STUDY001-SUBJ0039,6,HEIGHT,Height,175.9,cm,175.9,175.9,cm,Y,BASELINE,2,2025-09-11,1
STUDY001,VS,STUDY001-SUBJ0039,7,WEIGHT,Weight,50.6,kg,50.6,50.6,kg,Y,BASELINE,2,2025-09-11,1
STUDY001,VS,STUDY001-SUBJ0039,8,TEMP,Temperature,36.4,C,36.4,36.4,C,Y,BASELINE,2,2025-09-11,1
STUDY001,VS,STUDY001-SUBJ0039,9,BP,Blood Pressure,105/91,mmHg,105/91,,mmHg,Y,BASELINE,2,2025-09-11,1
STUDY001,VS,STUDY001-SUBJ0039,10,HR,Heart Rate,85,beats/min,85,85.0,beats/min,Y,BASELINE,2,2025-09-11,1
STUDY001,VS,STUDY001-SUBJ0039,11,HEIGHT,Height,176.1,cm,176.1,176.1,cm,,WEEK 1,3,2025-09-17,7
STUDY001,VS,STUDY001-SUBJ0039,12,WEIGHT,Weight,51.4,kg,51.4,51.4,kg,,WEEK 1,3,2025-09-17,7
STUDY001,VS,STUDY001-SUBJ0039,13,TEMP,Temperature,36.5,C,36.5,36.5,C,,WEEK 1,3,2025-09-17,7
STUDY001,VS,STUDY001-SUBJ0039,14,BP,Blood Pressure,106/86,mmHg,106/86,,mmHg,,WEEK 1,3,2025-09-17,7
STUDY001,VS,STUDY001-SUBJ0039,15,HR,Heart Rate,83,beats/min,83,83.0,beats/min,,WEEK 1,3,2025-09-17,7
STUDY001,VS,STUDY001-SUBJ0039,16,HEIGHT,Height,176.3,cm,176.3,176.3,cm,,WEEK 2,4,2025-09-24,14
STUDY001,VS,STUDY001-SUBJ0039,17,WEIGHT,Weight,51.0,kg,51.0,51.0,kg,,WEEK 2,4,2025-09-24,14
STUDY001,VS,STUDY001-SUBJ0039,18,TEMP,Temperature,36.1,C,36.1,36.1,C,,WEEK 2,4,2025-09-24,14
STUDY001,VS,STUDY001-SUBJ0039,19,BP,Blood Pressure,110/94,mmHg,110/94,,mmHg,,WEEK 2,4,2025-09-24,14
STUDY001,VS,STUDY001-SUBJ0039,20,HR,Heart Rate,81,beats/min,81,81.0,beats/min,,WEEK 2,4,2025-09-24,14
STUDY001,VS,STUDY001-SUBJ0039,21,HEIGHT,Height,176.0,cm,176.0,176.0,cm,,WEEK 4,5,2025-10-08,28
STUDY001,VS,STUDY001-SUBJ0039,22,WEIGHT,Weight,51.7,kg,51.7,51.7,kg,,WEEK 4,5,2025-10-08,28
STUDY001,VS,STUDY001-SUBJ0039,23,TEMP,Temperature,36.1,C,36.1,36.1,C,,WEEK 4,5,2025-10-08,28
STUDY001,VS,STUDY001-SUBJ0039,24,BP,Blood Pressure,106/92,mmHg,106/92,,mmHg,,WEEK 4,5,2025-10-08,28
STUDY001,VS,STUDY001-SUBJ0039,25,HR,Heart Rate,85,beats/min,85,85.0,beats/min,,WEEK 4,5,2025-10-08,28
STUDY001,VS,STUDY001-SUBJ0039,26,HEIGHT,Height,176.3,cm,176.3,176.3,cm,,WEEK 8,6,2025-11-05,56
STUDY001,VS,STUDY001-SUBJ0039,27,WEIGHT,Weight,51.6,kg,51.6,51.6,kg,,WEEK 8,6,2025-11-05,56
STUDY001,VS,STUDY001-SUBJ0039,28,TEMP,Temperature,36.1,C,36.1,36.1,C,,WEEK 8,6,2025-11-05,56
STUDY001,VS,STUDY001-SUBJ0039,29,BP,Blood Pressure,113/90,mmHg,113/90,,mmHg,,WEEK 8,6,2025-11-05,56
STUDY001,VS,STUDY001-SUBJ0039,30,HR,Heart Rate,86,beats/min,86,86.0,beats/min,,WEEK 8,6,2025-11-05,56
STUDY001,VS,STUDY001-SUBJ0039,31,HEIGHT,Height,176.0,cm,176.0,176.0,cm,,WEEK 12,7,2025-12-03,84
STUDY001,VS,STUDY001-SUBJ0039,32,WEIGHT,Weight,50.9,kg,50.9,50.9,kg,,WEEK 12,7,2025-12-03,84
STUDY001,VS,STUDY001-SUBJ0039,33,TEMP,Temperature,36.5,C,36.5,36.5,C,,WEEK 12,7,2025-12-03,84
STUDY001,VS,STUDY001-SUBJ0039,34,BP,Blood Pressure,113/93,mmHg,113/93,,mmHg,,WEEK 12,7,2025-12-03,84
STUDY001,VS,STUDY001-SUBJ0039,35,HR,Heart Rate,85,beats/min,85,85.0,beats/min,,WEEK 12,7,2025-12-03,84
STUDY001,VS,STUDY001-SUBJ0039,36,HEIGHT,Height,176.0,cm,176.0,176.0,cm,,WEEK 16,8,2025-12-31,112
STUDY001,VS,STUDY001-SUBJ0039,37,WEIGHT,Weight,51.2,kg,51.2,51.2,kg,,WEEK 16,8,2025-12-31,112
STUDY001,VS,STUDY001-SUBJ0039,38,TEMP,Temperature,36.2,C,36.2,36.2,C,,WEEK 16,8,2025-12-31,112
STUDY001,VS,STUDY001-SUBJ0039,39,BP,Blood Pressure,114/90,mmHg,114/90,,mmHg,,WEEK 16,8,2025-12-31,112
STUDY001,VS,STUDY001-SUBJ0039,40,HR,Heart Rate,82,beats/min,82,82.0,beats/min,,WEEK 16,8,2025-12-31,112
STUDY001,VS,STUDY001-SUBJ0039,41,HEIGHT,Height,176.2,cm,176.2,176.2,cm,,END OF TREATMENT,9,2026-01-28,140
STUDY001,VS,STUDY001-SUBJ0039,42,WEIGHT,Weight,50.6,kg,50.6,50.6,kg,,END OF TREATMENT,9,2026-01-28,140
STUDY001,VS,STUDY001-SUBJ0039,43,TEMP,Temperature,36.4,C,36.4,36.4,C,,END OF TREATMENT,9,2026-01-28,140
STUDY001,VS,STUDY001-SUBJ0039,44,BP,Blood Pressure,112/91,mmHg,112/91,,mmHg,,END OF TREATMENT,9,2026-01-28,140
STUDY001,VS,STUDY001-SUBJ0039,45,HR,Heart Rate,86,beats/min,86,86.0,beats/min,,END OF TREATMENT,9,2026-01-28,140
STUDY001,VS,STUDY001-SUBJ0040,1,HEIGHT,Height,153.1,cm,153.1,153.1,cm,,SCREENING,1,2025-08-17,-14
STUDY001,VS,STUDY001-SUBJ0040,2,WEIGHT,Weight,64.1,kg,64.1,64.1,kg,,SCREENING,1,2025-08-17,-14
STUDY001,VS,STUDY001-SUBJ0040,3,TEMP,Temperature,37.1,C,37.1,37.1,C,,SCREENING,1,2025-08-17,-14
STUDY001,VS,STUDY001-SUBJ0040,4,BP,Blood Pressure,129/93,mmHg,129/93,,mmHg,,SCREENING,1,2025-08-17,-14
STUDY001,VS,STUDY001-SUBJ0040,5,HR,Heart Rate,70,beats/min,70,70.0,beats/min,,SCREENING,1,2025-08-17,-14
STUDY001,VS,STUDY001-SUBJ0040,6,HEIGHT,Height,153.1,cm,153.1,153.1,cm,Y,BASELINE,2,2025-08-31,1
STUDY001,VS,STUDY001-SUBJ0040,7,WEIGHT,Weight,63.7,kg,63.7,63.7,kg,Y,BASELINE,2,2025-08-31,1
STUDY001,VS,STUDY001-SUBJ0040,8,TEMP,Temperature,36.7,C,36.7,36.7,C,Y,BASELINE,2,2025-08-31,1
STUDY001,VS,STUDY001-SUBJ0040,9,BP,Blood Pressure,125/101,mmHg,125/101,,mmHg,Y,BASELINE,2,2025-08-31,1
STUDY001,VS,STUDY001-SUBJ0040,10,HR,Heart Rate,76,beats/min,76,76.0,beats/min,Y,BASELINE,2,2025-08-31,1
STUDY001,VS,STUDY001-SUBJ0040,11,HEIGHT,Height,153.1,cm,153.1,153.1,cm,,WEEK 1,3,2025-09-06,7
STUDY001,VS,STUDY001-SUBJ0040,12,WEIGHT,Weight,62.4,kg,62.4,62.4,kg,,WEEK 1,3,2025-09-06,7
STUDY001,VS,STUDY001-SUBJ0040,13,TEMP,Temperature,36.9,C,36.9,36.9,C,,WEEK 1,3,2025-09-06,7
STUDY001,VS,STUDY001-SUBJ0040,14,BP,Blood Pressure,126/100,mmHg,126/100,,mmHg,,WEEK 1,3,2025-09-06,7
STUDY001,VS,STUDY001-SUBJ0040,15,HR,Heart Rate,72,beats/min,72,72.0,beats/min,,WEEK 1,3,2025-09-06,7
STUDY001,VS,STUDY001-SUBJ0040,16,HEIGHT,Height,153.2,cm,153.2,153.2,cm,,WEEK 2,4,2025-09-13,14
STUDY001,VS,STUDY001-SUBJ0040,17,WEIGHT,Weight,63.3,kg,63.3,63.3,kg,,WEEK 2,4,2025-09-13,14
STUDY001,VS,STUDY001-SUBJ0040,18,TEMP,Temperature,36.9,C,36.9,36.9,C,,WEEK 2,4,2025-09-13,14
STUDY001,VS,STUDY001-SUBJ0040,19,BP,Blood Pressure,130/99,mmHg,130/99,,mmHg,,WEEK 2,4,2025-09-13,14
STUDY001,VS,STUDY001-SUBJ0040,20,HR,Heart Rate,74,beats/min,74,74.0,beats/min,,WEEK 2,4,2025-09-13,14
STUDY001,VS,STUDY001-SUBJ0040,21,HEIGHT,Height,152.9,cm,152.9,152.9,cm,,WEEK 4,5,2025-09-27,28
STUDY001,VS,STUDY001-SUBJ0040,22,WEIGHT,Weight,64.1,kg,64.1,64.1,kg,,WEEK 4,5,2025-09-27,28
STUDY001,VS,STUDY001-SUBJ0040,23,TEMP,Temperature,37.1,C,37.1,37.1,C,,WEEK 4,5,2025-09-27,28
STUDY001,VS,STUDY001-SUBJ0040,24,BP,Blood Pressure,131/100,mmHg,131/100,,mmHg,,WEEK 4,5,2025-09-27,28
STUDY001,VS,STUDY001-SUBJ0040,25,HR,Heart Rate,75,beats/min,75,75.0,beats/min,,WEEK 4,5,2025-09-27,28
STUDY001,VS,STUDY001-SUBJ0040,26,HEIGHT,Height,153.1,cm,153.1,153.1,cm,,WEEK 8,6,2025-10-25,56
STUDY001,VS,STUDY001-SUBJ0040,27,WEIGHT,Weight,63.3,kg,63.3,63.3,kg,,WEEK 8,6,2025-10-25,56
STUDY001,VS,STUDY001-SUBJ0040,28,TEMP,Temperature,37.1,C,37.1,37.1,C,,WEEK 8,6,2025-10-25,56
STUDY001,VS,STUDY001-SUBJ0040,29,BP,Blood Pressure,127/93,mmHg,127/93,,mmHg,,WEEK 8,6,2025-10-25,56
STUDY001,VS,STUDY001-SUBJ0040,30,HR,Heart Rate,69,beats/min,69,69.0,beats/min,,WEEK 8,6,2025-10-25,56
STUDY001,VS,STUDY001-SUBJ0040,31,HEIGHT,Height,153.1,cm,153.1,153.1,cm,,WEEK 12,7,2025-11-22,84
STUDY001,VS,STUDY001-SUBJ0040,32,WEIGHT,Weight,63.6,kg,63.6,63.6,kg,,WEEK 12,7,2025-11-22,84
STUDY001,VS,STUDY001-SUBJ0040,33,TEMP,Temperature,36.9,C,36.9,36.9,C,,WEEK 12,7,2025-11-22,84
STUDY001,VS,STUDY001-SUBJ0040,34,BP,Blood Pressure,124/101,mmHg,124/101,,mmHg,,WEEK 12,7,2025-11-22,84
STUDY001,VS,STUDY001-SUBJ0040,35,HR,Heart Rate,75,beats/min,75,75.0,beats/min,,WEEK 12,7,2025-11-22,84
STUDY001,VS,STUDY001-SUBJ0040,36,HEIGHT,Height,153.1,cm,153.1,153.1,cm,,WEEK 16,8,2025-12-20,112
STUDY001,VS,STUDY001-SUBJ0040,37,WEIGHT,Weight,63.8,kg,63.8,63.8,kg,,WEEK 16,8,2025-12-20,112
STUDY001,VS,STUDY001-SUBJ0040,38,TEMP,Temperature,36.7,C,36.7,36.7,C,,WEEK 16,8,2025-12-20,112
STUDY001,VS,STUDY001-SUBJ0040,39,BP,Blood Pressure,132/98,mmHg,132/98,,mmHg,,WEEK 16,8,2025-12-20,112
STUDY001,VS,STUDY001-SUBJ0040,40,HR,Heart Rate,74,beats/min,74,74.0,beats/min,,WEEK 16,8,2025-12-20,112
STUDY001,VS,STUDY001-SUBJ0040,41,HEIGHT,Height,153.1,cm,153.1,153.1,cm,,END OF TREATMENT,9,2026-01-17,140
STUDY001,VS,STUDY001-SUBJ0040,42,WEIGHT,Weight,64.2,kg,64.2,64.2,kg,,END OF TREATMENT,9,2026-01-17,140
STUDY001,VS,STUDY001-SUBJ0040,43,TEMP,Temperature,36.9,C,36.9,36.9,C,,END OF TREATMENT,9,2026-01-17,140
STUDY001,VS,STUDY001-SUBJ0040,44,BP,Blood Pressure,125/93,mmHg,125/93,,mmHg,,END OF TREATMENT,9,2026-01-17,140
STUDY001,VS,STUDY001-SUBJ0040,45,HR,Heart Rate,75,beats/min,75,75.0,beats/min,,END OF TREATMENT,9,2026-01-17,140
STUDY001,VS,STUDY001-SUBJ0041,1,HEIGHT,Height,167.8,cm,167.8,167.8,cm,,SCREENING,1,2025-09-20,-14
STUDY001,VS,STUDY001-SUBJ0041,2,WEIGHT,Weight,94.5,kg,94.5,94.5,kg,,SCREENING,1,2025-09-20,-14
STUDY001,VS,STUDY001-SUBJ0041,3,TEMP,Temperature,36.7,C,36.7,36.7,C,,SCREENING,1,2025-09-20,-14
STUDY001,VS,STUDY001-SUBJ0041,4,BP,Blood Pressure,122/94,mmHg,122/94,,mmHg,,SCREENING,1,2025-09-20,-14
STUDY001,VS,STUDY001-SUBJ0041,5,HR,Heart Rate,69,beats/min,69,69.0,beats/min,,SCREENING,1,2025-09-20,-14
STUDY001,VS,STUDY001-SUBJ0041,6,HEIGHT,Height,167.8,cm,167.8,167.8,cm,Y,BASELINE,2,2025-10-04,1
STUDY001,VS,STUDY001-SUBJ0041,7,WEIGHT,Weight,95.0,kg,95.0,95.0,kg,Y,BASELINE,2,2025-10-04,1
STUDY001,VS,STUDY001-SUBJ0041,8,TEMP,Temperature,36.7,C,36.7,36.7,C,Y,BASELINE,2,2025-10-04,1
STUDY001,VS,STUDY001-SUBJ0041,9,BP,Blood Pressure,130/99,mmHg,130/99,,mmHg,Y,BASELINE,2,2025-10-04,1
STUDY001,VS,STUDY001-SUBJ0041,10,HR,Heart Rate,64,beats/min,64,64.0,beats/min,Y,BASELINE,2,2025-10-04,1
STUDY001,VS,STUDY001-SUBJ0041,11,HEIGHT,Height,167.9,cm,167.9,167.9,cm,,WEEK 1,3,2025-10-10,7
STUDY001,VS,STUDY001-SUBJ0041,12,WEIGHT,Weight,93.1,kg,93.1,93.1,kg,,WEEK 1,3,2025-10-10,7
STUDY001,VS,STUDY001-SUBJ0041,13,TEMP,Temperature,36.8,C,36.8,36.8,C,,WEEK 1,3,2025-10-10,7
STUDY001,VS,STUDY001-SUBJ0041,14,BP,Blood Pressure,126/93,mmHg,126/93,,mmHg,,WEEK 1,3,2025-10-10,7
STUDY001,VS,STUDY001-SUBJ0041,15,HR,Heart Rate,64,beats/min,64,64.0,beats/min,,WEEK 1,3,2025-10-10,7
STUDY001,VS,STUDY001-SUBJ0041,16,HEIGHT,Height,168.0,cm,168.0,168.0,cm,,WEEK 2,4,2025-10-17,14
STUDY001,VS,STUDY001-SUBJ0041,17,WEIGHT,Weight,94.4,kg,94.4,94.4,kg,,WEEK 2,4,2025-10-17,14
STUDY001,VS,STUDY001-SUBJ0041,18,TEMP,Temperature,36.7,C,36.7,36.7,C,,WEEK 2,4,2025-10-17,14
STUDY001,VS,STUDY001-SUBJ0041,19,BP,Blood Pressure,130/98,mmHg,130/98,,mmHg,,WEEK 2,4,2025-10-17,14
STUDY001,VS,STUDY001-SUBJ0041,20,HR,Heart Rate,69,beats/min,69,69.0,beats/min,,WEEK 2,4,2025-10-17,14
STUDY001,VS,STUDY001-SUBJ0041,21,HEIGHT,Height,167.9,cm,167.9,167.9,cm,,WEEK 4,5,2025-10-31,28
STUDY001,VS,STUDY001-SUBJ0041,22,WEIGHT,Weight,94.7,kg,94.7,94.7,kg,,WEEK 4,5,2025-10-31,28
STUDY001,VS,STUDY001-SUBJ0041,23,TEMP,Temperature,36.4,C,36.4,36.4,C,,WEEK 4,5,2025-10-31,28
STUDY001,VS,STUDY001-SUBJ0041,24,BP,Blood Pressure,128/93,mmHg,128/93,,mmHg,,WEEK 4,5,2025-10-31,28
STUDY001,VS,STUDY001-SUBJ0041,25,HR,Heart Rate,65,beats/min,65,65.0,beats/min,,WEEK 4,5,2025-10-31,28
STUDY001,VS,STUDY001-SUBJ0041,26,HEIGHT,Height,167.7,cm,167.7,167.7,cm,,WEEK 8,6,2025-11-28,56
STUDY001,VS,STUDY001-SUBJ0041,27,WEIGHT,Weight,94.6,kg,94.6,94.6,kg,,WEEK 8,6,2025-11-28,56
STUDY001,VS,STUDY001-SUBJ0041,28,TEMP,Temperature,36.5,C,36.5,36.5,C,,WEEK 8,6,2025-11-28,56
STUDY001,VS,STUDY001-SUBJ0041,29,BP,Blood Pressure,126/94,mmHg,126/94,,mmHg,,WEEK 8,6,2025-11-28,56
STUDY001,VS,STUDY001-SUBJ0041,30,HR,Heart Rate,61,beats/min,61,61.0,beats/min,,WEEK 8,6,2025-11-28,56
STUDY001,VS,STUDY001-SUBJ0041,31,HEIGHT,Height,167.7,cm,167.7,167.7,cm,,WEEK 12,7,2025-12-26,84
STUDY001,VS,STUDY001-SUBJ0041,32,WEIGHT,Weight,93.7,kg,93.7,93.7,kg,,WEEK 12,7,2025-12-26,84
STUDY001,VS,STUDY001-SUBJ0041,33,TEMP,Temperature,36.5,C,36.5,36.5,C,,WEEK 12,7,2025-12-26,84
STUDY001,VS,STUDY001-SUBJ0041,34,BP,Blood Pressure,126/102,mmHg,126/102,,mmHg,,WEEK 12,7,2025-12-26,84
STUDY001,VS,STUDY001-SUBJ0041,35,HR,Heart Rate,68,beats/min,68,68.0,beats/min,,WEEK 12,7,2025-12-26,84
STUDY001,VS,STUDY001-SUBJ0041,36,HEIGHT,Height,167.7,cm,167.7,167.7,cm,,WEEK 16,8,2026-01-23,112
STUDY001,VS,STUDY001-SUBJ0041,37,WEIGHT,Weight,94.4,kg,94.4,94.4,kg,,WEEK 16,8,2026-01-23,112
STUDY001,VS,STUDY001-SUBJ0041,38,TEMP,Temperature,36.3,C,36.3,36.3,C,,WEEK 16,8,2026-01-23,112
STUDY001,VS,STUDY001-SUBJ0041,39,BP,Blood Pressure,125/95,mmHg,125/95,,mmHg,,WEEK 16,8,2026-01-23,112
STUDY001,VS,STUDY001-SUBJ0041,40,HR,Heart Rate,67,beats/min,67,67.0,beats/min,,WEEK 16,8,2026-01-23,112
STUDY001,VS,STUDY001-SUBJ0041,41,HEIGHT,Height,167.9,cm,167.9,167.9,cm,,END OF TREATMENT,9,2026-02-20,140
STUDY001,VS,STUDY001-SUBJ0041,42,WEIGHT,Weight,94.6,kg,94.6,94.6,kg,,END OF TREATMENT,9,2026-02-20,140
STUDY001,VS,STUDY001-SUBJ0041,43,TEMP,Temperature,36.8,C,36.8,36.8,C,,END OF TREATMENT,9,2026-02-20,140
STUDY001,VS,STUDY001-SUBJ0041,44,BP,Blood Pressure,128/96,mmHg,128/96,,mmHg,,END OF TREATMENT,9,2026-02-20,140
STUDY001,VS,STUDY001-SUBJ0041,45,HR,Heart Rate,70,beats/min,70,70.0,beats/min,,END OF TREATMENT,9,2026-02-20,140
STUDY001,VS,STUDY001-SUBJ0042,1,HEIGHT,Height,152.6,cm,152.6,152.6,cm,,SCREENING,1,2025-05-29,-14
STUDY001,VS,STUDY001-SUBJ0042,2,WEIGHT,Weight,63.2,kg,63.2,63.2,kg,,SCREENING,1,2025-05-29,-14
STUDY001,VS,STUDY001-SUBJ0042,3,TEMP,Temperature,36.8,C,36.8,36.8,C,,SCREENING,1,2025-05-29,-14
STUDY001,VS,STUDY001-SUBJ0042,4,BP,Blood Pressure,148/83,mmHg,148/83,,mmHg,,SCREENING,1,2025-05-29,-14
STUDY001,VS,STUDY001-SUBJ0042,5,HR,Heart Rate,82,beats/min,82,82.0,beats/min,,SCREENING,1,2025-05-29,-14
STUDY001,VS,STUDY001-SUBJ0042,6,HEIGHT,Height,152.5,cm,152.5,152.5,cm,Y,BASELINE,2,2025-06-12,1
STUDY001,VS,STUDY001-SUBJ0042,7,WEIGHT,Weight,63.0,kg,63.0,63.0,kg,Y,BASELINE,2,2025-06-12,1
STUDY001,VS,STUDY001-SUBJ0042,8,TEMP,Temperature,36.9,C,36.9,36.9,C,Y,BASELINE,2,2025-06-12,1
STUDY001,VS,STUDY001-SUBJ0042,9,BP,Blood Pressure,149/87,mmHg,149/87,,mmHg,Y,BASELINE,2,2025-06-12,1
STUDY001,VS,STUDY001-SUBJ0042,10,HR,Heart Rate,75,beats/min,75,75.0,beats/min,Y,BASELINE,2,2025-06-12,1
STUDY001,VS,STUDY001-SUBJ0042,11,HEIGHT,Height,152.5,cm,152.5,152.5,cm,,WEEK 1,3,2025-06-18,7
STUDY001,VS,STUDY001-SUBJ0042,12,WEIGHT,Weight,63.8,kg,63.8,63.8,kg,,WEEK 1,3,2025-06-18,7
STUDY001,VS,STUDY001-SUBJ0042,13,TEMP,Temperature,37.1,C,37.1,37.1,C,,WEEK 1,3,2025-06-18,7
STUDY001,VS,STUDY001-SUBJ0042,14,BP,Blood Pressure,151/88,mmHg,151/88,,mmHg,,WEEK 1,3,2025-06-18,7
STUDY001,VS,STUDY001-SUBJ0042,15,HR,Heart Rate,82,beats/min,82,82.0,beats/min,,WEEK 1,3,2025-06-18,7
STUDY001,VS,STUDY001-SUBJ0042,16,HEIGHT,Height,152.8,cm,152.8,152.8,cm,,WEEK 2,4,2025-06-25,14
STUDY001,VS,STUDY001-SUBJ0042,17,WEIGHT,Weight,62.8,kg,62.8,62.8,kg,,WEEK 2,4,2025-06-25,14
STUDY001,VS,STUDY001-SUBJ0042,18,TEMP,Temperature,36.6,C,36.6,36.6,C,,WEEK 2,4,2025-06-25,14
STUDY001,VS,STUDY001-SUBJ0042,19,BP,Blood Pressure,151/83,mmHg,151/83,,mmHg,,WEEK 2,4,2025-06-25,14
STUDY001,VS,STUDY001-SUBJ0042,20,HR,Heart Rate,81,beats/min,81,81.0,beats/min,,WEEK 2,4,2025-06-25,14
STUDY001,VS,STUDY001-SUBJ0042,21,HEIGHT,Height,152.6,cm,152.6,152.6,cm,,WEEK 4,5,2025-07-09,28
STUDY001,VS,STUDY001-SUBJ0042,22,WEIGHT,Weight,63.4,kg,63.4,63.4,kg,,WEEK 4,5,2025-07-09,28
STUDY001,VS,STUDY001-SUBJ0042,23,TEMP,Temperature,36.7,C,36.7,36.7,C,,WEEK 4,5,2025-07-09,28
STUDY001,VS,STUDY001-SUBJ0042,24,BP,Blood Pressure,146/92,mmHg,146/92,,mmHg,,WEEK 4,5,2025-07-09,28
STUDY001,VS,STUDY001-SUBJ0042,25,HR,Heart Rate,74,beats/min,74,74.0,beats/min,,WEEK 4,5,2025-07-09,28
STUDY001,VS,STUDY001-SUBJ0042,26,HEIGHT,Height,152.7,cm,152.7,152.7,cm,,WEEK 8,6,2025-08-06,56
STUDY001,VS,STUDY001-SUBJ0042,27,WEIGHT,Weight,63.1,kg,63.1,63.1,kg,,WEEK 8,6,2025-08-06,56
STUDY001,VS,STUDY001-SUBJ0042,28,TEMP,Temperature,37.0,C,37.0,37.0,C,,WEEK 8,6,2025-08-06,56
STUDY001,VS,STUDY001-SUBJ0042,29,BP,Blood Pressure,144/90,mmHg,144/90,,mmHg,,WEEK 8,6,2025-08-06,56
STUDY001,VS,STUDY001-SUBJ0042,30,HR,Heart Rate,83,beats/min,83,83.0,beats/min,,WEEK 8,6,2025-08-06,56
STUDY001,VS,STUDY001-SUBJ0042,31,HEIGHT,Height,152.4,cm,152.4,152.4,cm,,WEEK 12,7,2025-09-03,84
STUDY001,VS,STUDY001-SUBJ0042,32,WEIGHT,Weight,63.1,kg,63.1,63.1,kg,,WEEK 12,7,2025-09-03,84
STUDY001,VS,STUDY001-SUBJ0042,33,TEMP,Temperature,36.8,C,36.8,36.8,C,,WEEK 12,7,2025-09-03,84
STUDY001,VS,STUDY001-SUBJ0042,34,BP,Blood Pressure,143/85,mmHg,143/85,,mmHg,,WEEK 12,7,2025-09-03,84
STUDY001,VS,STUDY001-SUBJ0042,35,HR,Heart Rate,82,beats/min,82,82.0,beats/min,,WEEK 12,7,2025-09-03,84
STUDY001,VS,STUDY001-SUBJ0042,36,HEIGHT,Height,152.5,cm,152.5,152.5,cm,,WEEK 16,8,2025-10-01,112
STUDY001,VS,STUDY001-SUBJ0042,37,WEIGHT,Weight,63.7,kg,63.7,63.7,kg,,WEEK 16,8,2025-10-01,112
STUDY001,VS,STUDY001-SUBJ0042,38,TEMP,Temperature,36.9,C,36.9,36.9,C,,WEEK 16,8,2025-10-01,112
STUDY001,VS,STUDY001-SUBJ0042,39,BP,Blood Pressure,147/86,mmHg,147/86,,mmHg,,WEEK 16,8,2025-10-01,112
STUDY001,VS,STUDY001-SUBJ0042,40,HR,Heart Rate,82,beats/min,82,82.0,beats/min,,WEEK 16,8,2025-10-01,112
STUDY001,VS,STUDY001-SUBJ0042,41,HEIGHT,Height,152.7,cm,152.7,152.7,cm,,END OF TREATMENT,9,2025-10-29,140
STUDY001,VS,STUDY001-SUBJ0042,42,WEIGHT,Weight,62.6,kg,62.6,62.6,kg,,END OF TREATMENT,9,2025-10-29,140
STUDY001,VS,STUDY001-SUBJ0042,43,TEMP,Temperature,37.0,C,37.0,37.0,C,,END OF TREATMENT,9,2025-10-29,140
STUDY001,VS,STUDY001-SUBJ0042,44,BP,Blood Pressure,147/84,mmHg,147/84,,mmHg,,END OF TREATMENT,9,2025-10-29,140
STUDY001,VS,STUDY001-SUBJ0042,45,HR,Heart Rate,76,beats/min,76,76.0,beats/min,,END OF TREATMENT,9,2025-10-29,140
STUDY001,VS,STUDY001-SUBJ0043,1,HEIGHT,Height,194.2,cm,194.2,194.2,cm,,SCREENING,1,2025-04-14,-14
STUDY001,VS,STUDY001-SUBJ0043,2,WEIGHT,Weight,85.4,kg,85.4,85.4,kg,,SCREENING,1,2025-04-14,-14
STUDY001,VS,STUDY001-SUBJ0043,3,TEMP,Temperature,36.4,C,36.4,36.4,C,,SCREENING,1,2025-04-14,-14
STUDY001,VS,STUDY001-SUBJ0043,4,BP,Blood Pressure,147/88,mmHg,147/88,,mmHg,,SCREENING,1,2025-04-14,-14
STUDY001,VS,STUDY001-SUBJ0043,5,HR,Heart Rate,84,beats/min,84,84.0,beats/min,,SCREENING,1,2025-04-14,-14
STUDY001,VS,STUDY001-SUBJ0043,6,HEIGHT,Height,194.0,cm,194.0,194.0,cm,Y,BASELINE,2,2025-04-28,1
STUDY001,VS,STUDY001-SUBJ0043,7,WEIGHT,Weight,85.2,kg,85.2,85.2,kg,Y,BASELINE,2,2025-04-28,1
STUDY001,VS,STUDY001-SUBJ0043,8,TEMP,Temperature,36.4,C,36.4,36.4,C,Y,BASELINE,2,2025-04-28,1
STUDY001,VS,STUDY001-SUBJ0043,9,BP,Blood Pressure,147/85,mmHg,147/85,,mmHg,Y,BASELINE,2,2025-04-28,1
STUDY001,VS,STUDY001-SUBJ0043,10,HR,Heart Rate,87,beats/min,87,87.0,beats/min,Y,BASELINE,2,2025-04-28,1
STUDY001,VS,STUDY001-SUBJ0043,11,HEIGHT,Height,194.1,cm,194.1,194.1,cm,,WEEK 1,3,2025-05-04,7
STUDY001,VS,STUDY001-SUBJ0043,12,WEIGHT,Weight,86.7,kg,86.7,86.7,kg,,WEEK 1,3,2025-05-04,7
STUDY001,VS,STUDY001-SUBJ0043,13,TEMP,Temperature,36.2,C,36.2,36.2,C,,WEEK 1,3,2025-05-04,7
STUDY001,VS,STUDY001-SUBJ0043,14,BP,Blood Pressure,138/84,mmHg,138/84,,mmHg,,WEEK 1,3,2025-05-04,7
STUDY001,VS,STUDY001-SUBJ0043,15,HR,Heart Rate,87,beats/min,87,87.0,beats/min,,WEEK 1,3,2025-05-04,7
STUDY001,VS,STUDY001-SUBJ0043,16,HEIGHT,Height,194.2,cm,194.2,194.2,cm,,WEEK 2,4,2025-05-11,14
STUDY001,VS,STUDY001-SUBJ0043,17,WEIGHT,Weight,86.1,kg,86.1,86.1,kg,,WEEK 2,4,2025-05-11,14
STUDY001,VS,STUDY001-SUBJ0043,18,TEMP,Temperature,36.5,C,36.5,36.5,C,,WEEK 2,4,2025-05-11,14
STUDY001,VS,STUDY001-SUBJ0043,19,BP,Blood Pressure,144/91,mmHg,144/91,,mmHg,,WEEK 2,4,2025-05-11,14
STUDY001,VS,STUDY001-SUBJ0043,20,HR,Heart Rate,86,beats/min,86,86.0,beats/min,,WEEK 2,4,2025-05-11,14
STUDY001,VS,STUDY001-SUBJ0043,21,HEIGHT,Height,194.3,cm,194.3,194.3,cm,,WEEK 4,5,2025-05-25,28
STUDY001,VS,STUDY001-SUBJ0043,22,WEIGHT,Weight,85.7,kg,85.7,85.7,kg,,WEEK 4,5,2025-05-25,28
STUDY001,VS,STUDY001-SUBJ0043,23,TEMP,Temperature,36.3,C,36.3,36.3,C,,WEEK 4,5,2025-05-25,28
STUDY001,VS,STUDY001-SUBJ0043,24,BP,Blood Pressure,145/90,mmHg,145/90,,mmHg,,WEEK 4,5,2025-05-25,28
STUDY001,VS,STUDY001-SUBJ0043,25,HR,Heart Rate,89,beats/min,89,89.0,beats/min,,WEEK 4,5,2025-05-25,28
STUDY001,VS,STUDY001-SUBJ0043,26,HEIGHT,Height,194.1,cm,194.1,194.1,cm,,WEEK 8,6,2025-06-22,56
STUDY001,VS,STUDY001-SUBJ0043,27,WEIGHT,Weight,85.0,kg,85.0,85.0,kg,,WEEK 8,6,2025-06-22,56
STUDY001,VS,STUDY001-SUBJ0043,28,TEMP,Temperature,36.4,C,36.4,36.4,C,,WEEK 8,6,2025-06-22,56
STUDY001,VS,STUDY001-SUBJ0043,29,BP,Blood Pressure,139/85,mmHg,139/85,,mmHg,,WEEK 8,6,2025-06-22,56
STUDY001,VS,STUDY001-SUBJ0043,30,HR,Heart Rate,80,beats/min,80,80.0,beats/min,,WEEK 8,6,2025-06-22,56
STUDY001,VS,STUDY001-SUBJ0043,31,HEIGHT,Height,194.4,cm,194.4,194.4,cm,,WEEK 12,7,2025-07-20,84
STUDY001,VS,STUDY001-SUBJ0043,32,WEIGHT,Weight,85.9,kg,85.9,85.9,kg,,WEEK 12,7,2025-07-20,84
STUDY001,VS,STUDY001-SUBJ0043,33,TEMP,Temperature,36.2,C,36.2,36.2,C,,WEEK 12,7,2025-07-20,84
STUDY001,VS,STUDY001-SUBJ0043,34,BP,Blood Pressure,140/84,mmHg,140/84,,mmHg,,WEEK 12,7,2025-07-20,84
STUDY001,VS,STUDY001-SUBJ0043,35,HR,Heart Rate,82,beats/min,82,82.0,beats/min,,WEEK 12,7,2025-07-20,84
STUDY001,VS,STUDY001-SUBJ0043,36,HEIGHT,Height,194.3,cm,194.3,194.3,cm,,WEEK 16,8,2025-08-17,112
STUDY001,VS,STUDY001-SUBJ0043,37,WEIGHT,Weight,85.6,kg,85.6,85.6,kg,,WEEK 16,8,2025-08-17,112
STUDY001,VS,STUDY001-SUBJ0043,38,TEMP,Temperature,36.1,C,36.1,36.1,C,,WEEK 16,8,2025-08-17,112
STUDY001,VS,STUDY001-SUBJ0043,39,BP,Blood Pressure,143/91,mmHg,143/91,,mmHg,,WEEK 16,8,2025-08-17,112
STUDY001,VS,STUDY001-SUBJ0043,40,HR,Heart Rate,85,beats/min,85,85.0,beats/min,,WEEK 16,8,2025-08-17,112
STUDY001,VS,STUDY001-SUBJ0043,41,HEIGHT,Height,194.4,cm,194.4,194.4,cm,,END OF TREATMENT,9,2025-09-14,140
STUDY001,VS,STUDY001-SUBJ0043,42,WEIGHT,Weight,86.7,kg,86.7,86.7,kg,,END OF TREATMENT,9,2025-09-14,140
STUDY001,VS,STUDY001-SUBJ0043,43,TEMP,Temperature,36.4,C,36.4,36.4,C,,END OF TREATMENT,9,2025-09-14,140
STUDY001,VS,STUDY001-SUBJ0043,44,BP,Blood Pressure,141/90,mmHg,141/90,,mmHg,,END OF TREATMENT,9,2025-09-14,140
STUDY001,VS,STUDY001-SUBJ0043,45,HR,Heart Rate,82,beats/min,82,82.0,beats/min,,END OF TREATMENT,9,2025-09-14,140
STUDY001,VS,STUDY001-SUBJ0044,1,HEIGHT,Height,162.4,cm,162.4,162.4,cm,,SCREENING,1,2025-04-20,-14
STUDY001,VS,STUDY001-SUBJ0044,2,WEIGHT,Weight,67.1,kg,67.1,67.1,kg,,SCREENING,1,2025-04-20,-14
STUDY001,VS,STUDY001-SUBJ0044,3,TEMP,Temperature,36.8,C,36.8,36.8,C,,SCREENING,1,2025-04-20,-14
STUDY001,VS,STUDY001-SUBJ0044,4,BP,Blood Pressure,109/93,mmHg,109/93,,mmHg,,SCREENING,1,2025-04-20,-14
STUDY001,VS,STUDY001-SUBJ0044,5,HR,Heart Rate,64,beats/min,64,64.0,beats/min,,SCREENING,1,2025-04-20,-14
STUDY001,VS,STUDY001-SUBJ0044,6,HEIGHT,Height,162.3,cm,162.3,162.3,cm,Y,BASELINE,2,2025-05-04,1
STUDY001,VS,STUDY001-SUBJ0044,7,WEIGHT,Weight,68.5,kg,68.5,68.5,kg,Y,BASELINE,2,2025-05-04,1
STUDY001,VS,STUDY001-SUBJ0044,8,TEMP,Temperature,36.5,C,36.5,36.5,C,Y,BASELINE,2,2025-05-04,1
STUDY001,VS,STUDY001-SUBJ0044,9,BP,Blood Pressure,103/87,mmHg,103/87,,mmHg,Y,BASELINE,2,2025-05-04,1
STUDY001,VS,STUDY001-SUBJ0044,10,HR,Heart Rate,62,beats/min,62,62.0,beats/min,Y,BASELINE,2,2025-05-04,1
STUDY001,VS,STUDY001-SUBJ0044,11,HEIGHT,Height,162.2,cm,162.2,162.2,cm,,WEEK 1,3,2025-05-10,7
STUDY001,VS,STUDY001-SUBJ0044,12,WEIGHT,Weight,67.5,kg,67.5,67.5,kg,,WEEK 1,3,2025-05-10,7
STUDY001,VS,STUDY001-SUBJ0044,13,TEMP,Temperature,36.7,C,36.7,36.7,C,,WEEK 1,3,2025-05-10,7
STUDY001,VS,STUDY001-SUBJ0044,14,BP,Blood Pressure,104/85,mmHg,104/85,,mmHg,,WEEK 1,3,2025-05-10,7
STUDY001,VS,STUDY001-SUBJ0044,15,HR,Heart Rate,60,beats/min,60,60.0,beats/min,,WEEK 1,3,2025-05-10,7
STUDY001,VS,STUDY001-SUBJ0044,16,HEIGHT,Height,162.4,cm,162.4,162.4,cm,,WEEK 2,4,2025-05-17,14
STUDY001,VS,STUDY001-SUBJ0044,17,WEIGHT,Weight,68.4,kg,68.4,68.4,kg,,WEEK 2,4,2025-05-17,14
STUDY001,VS,STUDY001-SUBJ0044,18,TEMP,Temperature,36.3,C,36.3,36.3,C,,WEEK 2,4,2025-05-17,14
STUDY001,VS,STUDY001-SUBJ0044,19,BP,Blood Pressure,110/85,mmHg,110/85,,mmHg,,WEEK 2,4,2025-05-17,14
STUDY001,VS,STUDY001-SUBJ0044,20,HR,Heart Rate,62,beats/min,62,62.0,beats/min,,WEEK 2,4,2025-05-17,14
STUDY001,VS,STUDY001-SUBJ0044,21,HEIGHT,Height,162.4,cm,162.4,162.4,cm,,WEEK 4,5,2025-05-31,28
STUDY001,VS,STUDY001-SUBJ0044,22,WEIGHT,Weight,66.9,kg,66.9,66.9,kg,,WEEK 4,5,2025-05-31,28
STUDY001,VS,STUDY001-SUBJ0044,23,TEMP,Temperature,36.4,C,36.4,36.4,C,,WEEK 4,5,2025-05-31,28
STUDY001,VS,STUDY001-SUBJ0044,24,BP,Blood Pressure,104/92,mmHg,104/92,,mmHg,,WEEK 4,5,2025-05-31,28
STUDY001,VS,STUDY001-SUBJ0044,25,HR,Heart Rate,58,beats/min,58,58.0,beats/min,,WEEK 4,5,2025-05-31,28
STUDY001,VS,STUDY001-SUBJ0044,26,HEIGHT,Height,162.4,cm,162.4,162.4,cm,,WEEK 8,6,2025-06-28,56
STUDY001,VS,STUDY001-SUBJ0044,27,WEIGHT,Weight,68.1,kg,68.1,68.1,kg,,WEEK 8,6,2025-06-28,56
STUDY001,VS,STUDY001-SUBJ0044,28,TEMP,Temperature,36.7,C,36.7,36.7,C,,WEEK 8,6,2025-06-28,56
STUDY001,VS,STUDY001-SUBJ0044,29,BP,Blood Pressure,111/90,mmHg,111/90,,mmHg,,WEEK 8,6,2025-06-28,56
STUDY001,VS,STUDY001-SUBJ0044,30,HR,Heart Rate,59,beats/min,59,59.0,beats/min,,WEEK 8,6,2025-06-28,56
STUDY001,VS,STUDY001-SUBJ0044,31,HEIGHT,Height,162.6,cm,162.6,162.6,cm,,WEEK 12,7,2025-07-26,84
STUDY001,VS,STUDY001-SUBJ0044,32,WEIGHT,Weight,67.8,kg,67.8,67.8,kg,,WEEK 12,7,2025-07-26,84
STUDY001,VS,STUDY001-SUBJ0044,33,TEMP,Temperature,36.6,C,36.6,36.6,C,,WEEK 12,7,2025-07-26,84
STUDY001,VS,STUDY001-SUBJ0044,34,BP,Blood Pressure,109/93,mmHg,109/93,,mmHg,,WEEK 12,7,2025-07-26,84
STUDY001,VS,STUDY001-SUBJ0044,35,HR,Heart Rate,57,beats/min,57,57.0,beats/min,,WEEK 12,7,2025-07-26,84
STUDY001,VS,STUDY001-SUBJ0044,36,HEIGHT,Height,162.4,cm,162.4,162.4,cm,,WEEK 16,8,2025-08-23,112
STUDY001,VS,STUDY001-SUBJ0044,37,WEIGHT,Weight,67.3,kg,67.3,67.3,kg,,WEEK 16,8,2025-08-23,112
STUDY001,VS,STUDY001-SUBJ0044,38,TEMP,Temperature,36.8,C,36.8,36.8,C,,WEEK 16,8,2025-08-23,112
STUDY001,VS,STUDY001-SUBJ0044,39,BP,Blood Pressure,108/93,mmHg,108/93,,mmHg,,WEEK 16,8,2025-08-23,112
STUDY001,VS,STUDY001-SUBJ0044,40,HR,Heart Rate,59,beats/min,59,59.0,beats/min,,WEEK 16,8,2025-08-23,112
STUDY001,VS,STUDY001-SUBJ0044,41,HEIGHT,Height,162.5,cm,162.5,162.5,cm,,END OF TREATMENT,9,2025-09-20,140
STUDY001,VS,STUDY001-SUBJ0044,42,WEIGHT,Weight,67.0,kg,67.0,67.0,kg,,END OF TREATMENT,9,2025-09-20,140
STUDY001,VS,STUDY001-SUBJ0044,43,TEMP,Temperature,36.8,C,36.8,36.8,C,,END OF TREATMENT,9,2025-09-20,140
STUDY001,VS,STUDY001-SUBJ0044,44,BP,Blood Pressure,109/85,mmHg,109/85,,mmHg,,END OF TREATMENT,9,2025-09-20,140
STUDY001,VS,STUDY001-SUBJ0044,45,HR,Heart Rate,63,beats/min,63,63.0,beats/min,,END OF TREATMENT,9,2025-09-20,140
STUDY001,VS,STUDY001-SUBJ0045,1,HEIGHT,Height,193.0,cm,193.0,193.0,cm,,SCREENING,1,2025-04-05,-14
STUDY001,VS,STUDY001-SUBJ0045,2,WEIGHT,Weight,73.9,kg,73.9,73.9,kg,,SCREENING,1,2025-04-05,-14
STUDY001,VS,STUDY001-SUBJ0045,3,TEMP,Temperature,37.0,C,37.0,37.0,C,,SCREENING,1,2025-04-05,-14
STUDY001,VS,STUDY001-SUBJ0045,4,BP,Blood Pressure,135/86,mmHg,135/86,,mmHg,,SCREENING,1,2025-04-05,-14
STUDY001,VS,STUDY001-SUBJ0045,5,HR,Heart Rate,71,beats/min,71,71.0,beats/min,,SCREENING,1,2025-04-05,-14
STUDY001,VS,STUDY001-SUBJ0045,6,HEIGHT,Height,192.9,cm,192.9,192.9,cm,Y,BASELINE,2,2025-04-19,1
STUDY001,VS,STUDY001-SUBJ0045,7,WEIGHT,Weight,75.1,kg,75.1,75.1,kg,Y,BASELINE,2,2025-04-19,1
STUDY001,VS,STUDY001-SUBJ0045,8,TEMP,Temperature,36.7,C,36.7,36.7,C,Y,BASELINE,2,2025-04-19,1
STUDY001,VS,STUDY001-SUBJ0045,9,BP,Blood Pressure,140/89,mmHg,140/89,,mmHg,Y,BASELINE,2,2025-04-19,1
STUDY001,VS,STUDY001-SUBJ0045,10,HR,Heart Rate,70,beats/min,70,70.0,beats/min,Y,BASELINE,2,2025-04-19,1
STUDY001,VS,STUDY001-SUBJ0045,11,HEIGHT,Height,192.8,cm,192.8,192.8,cm,,WEEK 1,3,2025-04-25,7
STUDY001,VS,STUDY001-SUBJ0045,12,WEIGHT,Weight,74.5,kg,74.5,74.5,kg,,WEEK 1,3,2025-04-25,7
STUDY001,VS,STUDY001-SUBJ0045,13,TEMP,Temperature,36.9,C,36.9,36.9,C,,WEEK 1,3,2025-04-25,7
STUDY001,VS,STUDY001-SUBJ0045,14,BP,Blood Pressure,136/89,mmHg,136/89,,mmHg,,WEEK 1,3,2025-04-25,7
STUDY001,VS,STUDY001-SUBJ0045,15,HR,Heart Rate,74,beats/min,74,74.0,beats/min,,WEEK 1,3,2025-04-25,7
STUDY001,VS,STUDY001-SUBJ0045,16,HEIGHT,Height,193.1,cm,193.1,193.1,cm,,WEEK 2,4,2025-05-02,14
STUDY001,VS,STUDY001-SUBJ0045,17,WEIGHT,Weight,74.0,kg,74.0,74.0,kg,,WEEK 2,4,2025-05-02,14
STUDY001,VS,STUDY001-SUBJ0045,18,TEMP,Temperature,36.9,C,36.9,36.9,C,,WEEK 2,4,2025-05-02,14
STUDY001,VS,STUDY001-SUBJ0045,19,BP,Blood Pressure,139/81,mmHg,139/81,,mmHg,,WEEK 2,4,2025-05-02,14
STUDY001,VS,STUDY001-SUBJ0045,20,HR,Heart Rate,66,beats/min,66,66.0,beats/min,,WEEK 2,4,2025-05-02,14
STUDY001,VS,STUDY001-SUBJ0045,21,HEIGHT,Height,193.0,cm,193.0,193.0,cm,,WEEK 4,5,2025-05-16,28
STUDY001,VS,STUDY001-SUBJ0045,22,WEIGHT,Weight,74.7,kg,74.7,74.7,kg,,WEEK 4,5,2025-05-16,28
STUDY001,VS,STUDY001-SUBJ0045,23,TEMP,Temperature,36.7,C,36.7,36.7,C,,WEEK 4,5,2025-05-16,28
STUDY001,VS,STUDY001-SUBJ0045,24,BP,Blood Pressure,135/83,mmHg,135/83,,mmHg,,WEEK 4,5,2025-05-16,28
STUDY001,VS,STUDY001-SUBJ0045,25,HR,Heart Rate,70,beats/min,70,70.0,beats/min,,WEEK 4,5,2025-05-16,28
STUDY001,VS,STUDY001-SUBJ0045,26,HEIGHT,Height,192.9,cm,192.9,192.9,cm,,WEEK 8,6,2025-06-13,56
STUDY001,VS,STUDY001-SUBJ0045,27,WEIGHT,Weight,73.5,kg,73.5,73.5,kg,,WEEK 8,6,2025-06-13,56
STUDY001,VS,STUDY001-SUBJ0045,28,TEMP,Temperature,36.7,C,36.7,36.7,C,,WEEK 8,6,2025-06-13,56
STUDY001,VS,STUDY001-SUBJ0045,29,BP,Blood Pressure,141/86,mmHg,141/86,,mmHg,,WEEK 8,6,2025-06-13,56
STUDY001,VS,STUDY001-SUBJ0045,30,HR,Heart Rate,67,beats/min,67,67.0,beats/min,,WEEK 8,6,2025-06-13,56
STUDY001,VS,STUDY001-SUBJ0045,31,HEIGHT,Height,193.1,cm,193.1,193.1,cm,,WEEK 12,7,2025-07-11,84
STUDY001,VS,STUDY001-SUBJ0045,32,WEIGHT,Weight,75.1,kg,75.1,75.1,kg,,WEEK 12,7,2025-07-11,84
STUDY001,VS,STUDY001-SUBJ0045,33,TEMP,Temperature,37.2,C,37.2,37.2,C,,WEEK 12,7,2025-07-11,84
STUDY001,VS,STUDY001-SUBJ0045,34,BP,Blood Pressure,132/81,mmHg,132/81,,mmHg,,WEEK 12,7,2025-07-11,84
STUDY001,VS,STUDY001-SUBJ0045,35,HR,Heart Rate,66,beats/min,66,66.0,beats/min,,WEEK 12,7,2025-07-11,84
STUDY001,VS,STUDY001-SUBJ0045,36,HEIGHT,Height,192.8,cm,192.8,192.8,cm,,WEEK 16,8,2025-08-08,112
STUDY001,VS,STUDY001-SUBJ0045,37,WEIGHT,Weight,73.8,kg,73.8,73.8,kg,,WEEK 16,8,2025-08-08,112
STUDY001,VS,STUDY001-SUBJ0045,38,TEMP,Temperature,36.9,C,36.9,36.9,C,,WEEK 16,8,2025-08-08,112
STUDY001,VS,STUDY001-SUBJ0045,39,BP,Blood Pressure,139/87,mmHg,139/87,,mmHg,,WEEK 16,8,2025-08-08,112
STUDY001,VS,STUDY001-SUBJ0045,40,HR,Heart Rate,75,beats/min,75,75.0,beats/min,,WEEK 16,8,2025-08-08,112
STUDY001,VS,STUDY001-SUBJ0045,41,HEIGHT,Height,193.1,cm,193.1,193.1,cm,,END OF TREATMENT,9,2025-09-05,140
STUDY001,VS,STUDY001-SUBJ0045,42,WEIGHT,Weight,73.3,kg,73.3,73.3,kg,,END OF TREATMENT,9,2025-09-05,140
STUDY001,VS,STUDY001-SUBJ0045,43,TEMP,Temperature,36.9,C,36.9,36.9,C,,END OF TREATMENT,9,2025-09-05,140
STUDY001,VS,STUDY001-SUBJ0045,44,BP,Blood Pressure,136/88,mmHg,136/88,,mmHg,,END OF TREATMENT,9,2025-09-05,140
STUDY001,VS,STUDY001-SUBJ0045,45,HR,Heart Rate,75,beats/min,75,75.0,beats/min,,END OF TREATMENT,9,2025-09-05,140
STUDY001,VS,STUDY001-SUBJ0046,1,HEIGHT,Height,185.9,cm,185.9,185.9,cm,,SCREENING,1,2024-12-22,-14
STUDY001,VS,STUDY001-SUBJ0046,2,WEIGHT,Weight,75.9,kg,75.9,75.9,kg,,SCREENING,1,2024-12-22,-14
STUDY001,VS,STUDY001-SUBJ0046,3,TEMP,Temperature,36.1,C,36.1,36.1,C,,SCREENING,1,2024-12-22,-14
STUDY001,VS,STUDY001-SUBJ0046,4,BP,Blood Pressure,135/97,mmHg,135/97,,mmHg,,SCREENING,1,2024-12-22,-14
STUDY001,VS,STUDY001-SUBJ0046,5,HR,Heart Rate,65,beats/min,65,65.0,beats/min,,SCREENING,1,2024-12-22,-14
STUDY001,VS,STUDY001-SUBJ0046,6,HEIGHT,Height,186.0,cm,186.0,186.0,cm,Y,BASELINE,2,2025-01-05,1
